"Time (s)","Linear Acceleration x (m/s^2)","Linear Acceleration y (m/s^2)","Linear Acceleration z (m/s^2)","Absolute acceleration (m/s^2)"
2.489343600E-2,3.244871902E1,-3.425875092E1,1.513791561E1,4.955540202E1
4.482463000E-2,1.320819664E1,-2.232192993E1,6.382399559E0,2.671067274E1
6.473794000E-2,2.181916237E0,-1.261513138E1,-3.728917122E0,1.333443366E1
8.465416000E-2,-3.514907598E0,-4.802930832E0,-3.425155640E0,6.866906957E0
1.045719860E-1,-4.202980995E0,9.453811646E-1,-4.910078526E0,6.532049136E0
1.244890600E-1,-9.785981178E-1,7.084993362E0,-8.051635742E0,1.076956932E1
1.444053210E-1,1.288614750E0,1.250937462E1,-8.691799164E0,1.528699951E1
1.643231680E-1,3.061909914E0,1.672038269E1,-1.043782902E1,1.994729967E1
1.842327140E-1,3.778833389E0,1.917587090E1,-1.238789368E1,2.313986854E1
2.041576210E-1,8.293383121E-1,1.759929657E1,-1.166152859E1,2.112851842E1
2.240750820E-1,-9.286062121E-1,1.504540253E1,-6.962891579E0,1.660446644E1
2.439934170E-1,-1.213191628E0,1.285992527E1,-7.480691075E-1,1.293866760E1
2.639095350E-1,9.716997147E0,1.199611473E1,3.278000259E1,3.623334614E1
2.838181050E-1,9.491399765E0,4.410076141E-2,2.720540237E1,2.881358243E1
3.037428900E-1,2.786422253E0,-2.953650475E0,5.705212355E-1,4.100450533E0
3.236600450E-1,8.598201275E-1,2.612589836E0,-1.583141994E1,1.606856477E1
3.435675980E-1,6.936890602E0,-3.561121941E0,-1.796752930E1,1.958658086E1
3.634939900E-1,1.133320999E1,-5.265630722E0,-1.405654335E1,1.880837384E1
3.834028850E-1,6.225506783E0,-5.404118538E0,-1.051497746E1,1.336136904E1
4.033151780E-1,7.055978775E0,-1.798407745E1,-1.137505436E1,2.241887018E1
4.232428720E-1,1.030964279E1,-3.065374374E1,3.450836658E0,3.252459091E1
4.431621230E-1,4.635862350E0,-2.272685051E1,3.164281273E1,3.923351311E1
4.630776510E-1,-2.039731503E0,-9.963125229E0,1.630167007E1,1.921376632E1
4.829961900E-1,1.007654190E0,-3.947018623E0,1.794960213E1,1.840604628E1
5.029141800E-1,4.155149937E0,2.183735371E0,1.501438618E1,1.573104458E1
5.228309480E-1,2.364775658E0,6.459825993E0,1.334676743E1,1.501524946E1
5.427472500E-1,-2.913425922E0,2.673786163E0,2.024181366E1,2.062445644E1
5.626642630E-1,-1.157861137E1,-1.555679321E0,1.989241409E1,2.306929817E1
5.825812350E-1,-1.192102432E1,-1.453343868E0,7.191579819E0,1.399792305E1
6.024984720E-1,-7.801220417E0,1.618644238E0,4.708853722E0,9.254855619E0
6.224153220E-1,-6.250121117E0,4.537011147E0,4.427925587E0,8.902528243E0
6.423324570E-1,-5.673851013E0,5.518275261E0,2.333934546E0,8.251739067E0
6.622524410E-1,-2.913515568E0,1.033929825E0,5.228139877E0,6.073798681E0
6.821665240E-1,-1.568185210E0,-6.216620445E0,2.515559435E0,6.887206537E0
7.020907190E-1,2.635212517E1,-2.786608124E1,1.023555946E1,3.969533552E1
7.219924320E-1,3.479265594E1,-2.642172813E1,1.930805206E1,4.776439573E1
7.419175020E-1,1.768425179E1,-1.969907951E1,3.449299335E0,2.669614505E1
7.618338030E-1,3.270654917E0,-1.103754616E1,-6.478581905E0,1.320971734E1
7.817502060E-1,-5.850933552E0,-5.563260078E0,-5.246546745E0,9.628579276E0
8.016647770E-1,-5.627534389E0,1.380660057E0,-4.559096336E0,7.372972596E0
8.215804270E-1,-1.987095952E0,8.672163963E0,-7.563318253E0,1.167727542E1
8.415017940E-1,-8.541842699E-1,1.375132179E1,-8.497570038E0,1.618756246E1
8.614188680E-1,-1.796853423E0,1.719038391E1,-1.371940041E1,2.206716857E1
8.813288010E-1,-3.722879887E-1,1.744075394E1,-1.550862217E1,2.334171926E1
9.012544400E-1,-1.248944879E0,1.602929878E1,-1.399485970E1,2.131559008E1
9.211703960E-1,-1.803448558E0,1.392398453E1,-7.660773277E0,1.599428707E1
9.410872860E-1,-1.280872822E-1,1.230611515E1,-7.808275521E-2,1.230702943E1
9.610050930E-1,2.629355621E1,2.158246040E0,6.689507294E1,7.190938678E1
9.809223700E-1,9.474714279E0,-6.979415894E0,-2.288210392E0,1.198825941E1
1.000832018E0,2.841958523E0,-1.678376198E0,-2.800334740E1,2.819718320E1
1.020755684E0,3.518645763E0,-3.226933479E0,-2.875960159E1,2.915319282E1
1.040671314E0,1.282037497E0,-1.585290909E0,-2.052677345E1,2.062777729E1
1.060589181E0,2.643985033E0,-2.698208809E0,-6.879958630E0,7.848873701E0
1.080510528E0,6.031252861E0,-1.276426125E1,-3.447315693E0,1.453225247E1
1.100408579E0,1.511702156E1,-3.977941895E1,-8.452093124E0,4.338622351E1
1.120339406E0,1.078151608E1,-2.698904419E1,4.611048508E1,5.450528808E1
1.140256501E0,2.541420698E0,-1.160700035E1,1.901723289E1,2.242401443E1
1.160174511E0,2.639486790E-1,-4.121412754E0,1.487488842E1,1.543755219E1
1.180091158E0,1.610779047E0,5.155521870E0,1.167923355E1,1.286773139E1
1.200010083E0,7.452757359E-1,1.000231457E1,1.641263199E1,1.923476596E1
1.219926344E0,-5.569853783E0,5.226537704E0,2.147529602E1,2.279316360E1
1.239835361E0,-1.142838478E1,-1.072371006E0,1.580219460E1,1.953118819E1
1.259759434E0,-1.045127106E1,-1.240711212E-1,6.668109894E0,1.239790909E1
1.279676406E0,-6.740996838E0,2.452949047E0,4.473610878E0,8.454063619E0
1.299592707E0,-5.763476372E0,4.466839790E0,4.061856270E0,8.346795430E0
1.319510371E0,-5.614455223E0,4.418193340E0,3.746342421E0,8.067070185E0
1.339427506E0,-3.505821466E0,-5.629177094E-1,4.853522301E0,6.013679342E0
1.359336849E0,8.404569626E-1,-1.102631664E1,3.287269115E0,1.153655776E1
1.379255795E0,3.466307068E1,-3.536174774E1,1.176431274E1,5.089578299E1
1.399177019E0,3.092541313E1,-2.460678482E1,1.851620865E1,4.364315547E1
1.419095497E0,1.706278038E1,-1.375549412E1,-7.971369028E-1,2.193142768E1
1.439013039E0,4.053859711E0,-6.333980560E0,-8.459354401E0,1.131873514E1
1.458929625E0,-4.211072922E0,-1.983166695E0,-6.084145546E0,7.660477290E0
1.478838398E0,-5.679685593E0,2.857157230E0,-5.770553589E0,8.586120462E0
1.498764445E0,-2.880747080E0,8.689227104E0,-7.853467464E0,1.206143949E1
1.518680603E0,-1.854828477E0,1.331088448E1,-9.478656769E0,1.644581918E1
1.538585978E0,-1.421453357E0,1.692690468E1,-1.575117016E1,2.316549143E1
1.558507691E0,-1.745428920E0,1.672507095E1,-1.753223991E1,2.429308455E1
1.578432476E0,-2.959447622E0,1.415402985E1,-1.271115780E1,1.925275107E1
1.598349470E0,-2.610772848E0,1.193447876E1,-4.735399246E0,1.310236330E1
1.618259830E0,8.834175110E0,1.167321873E1,2.642014885E1,3.020481668E1
1.638178105E0,1.524561691E1,4.329681396E-4,4.073693848E1,4.349628710E1
1.658104211E0,2.627570152E0,1.231073856E0,-1.099505615E1,1.137149628E1
1.678016261E0,-3.232173681E0,5.509146214E0,-1.857672119E1,1.964413930E1
1.697934250E0,6.293648720E0,-2.268619537E-1,-1.598115253E1,1.717727327E1
1.717851528E0,1.226373672E1,-6.075683594E0,-1.653088188E1,2.146120279E1
1.737768561E0,8.547868729E0,-7.307065964E0,-9.597714424E0,1.478429555E1
1.757685676E0,9.612949371E0,-1.904208755E1,-1.014825344E1,2.362195889E1
1.777594917E0,1.028363037E1,-3.099327278E1,2.739984989E-1,3.265595025E1
1.797519824E0,9.173480034E0,-2.063741875E1,3.733141708E1,4.363130172E1
1.817436776E0,6.207752228E-1,-9.211011887E0,1.434688759E1,1.706051832E1
1.837353789E0,-3.606295586E-2,-4.257393837E0,1.773620224E1,1.824005408E1
1.857273813E0,1.134394884E0,1.289393425E0,1.869303894E1,1.877176316E1
1.877188303E0,1.397677660E0,6.094304562E0,1.157130241E1,1.315253171E1
1.897114797E0,-1.580200195E0,5.533174992E0,1.658628845E1,1.755613918E1
1.917021230E0,-8.475682259E0,2.400906086E0,1.614800262E1,1.839455160E1
1.936937349E0,-1.222434998E1,9.470367432E-2,9.897763252E0,1.572925359E1
1.956857027E0,-8.542272568E0,1.665949345E0,6.080894470E0,1.061711286E1
1.976767061E0,-6.823899269E0,3.685334206E0,2.858957291E0,8.265647357E0
1.996681368E0,-6.759366512E0,5.377175331E0,1.808504105E0,8.824609753E0
2.016599317E0,-5.736134529E0,4.112708092E0,2.577735901E0,7.514141971E0
2.036523166E0,-4.041613579E0,-6.546487808E-1,3.398581743E0,5.321049071E0
2.056440220E0,9.065855026E0,-1.778405952E1,8.688470840E0,2.177043927E1
2.076350316E0,4.006740952E1,-3.394380188E1,1.182566547E1,5.382773779E1
2.096264114E0,2.372231483E1,-2.218990707E1,1.406384182E1,3.539677731E1
2.116192988E0,1.375177383E1,-9.351285934E0,2.110140324E-1,1.663136672E1
2.136107520E0,3.349942684E0,-2.390250206E0,-4.701420307E0,6.248100907E0
2.156025875E0,-5.771796703E0,-2.454853058E-2,-4.247196674E0,7.166095130E0
2.175944841E0,-6.122125149E0,2.964177608E0,-6.350419044E0,9.305621273E0
2.195858721E0,-3.069617748E0,8.743972778E0,-7.937973976E0,1.220209178E1
2.215776385E0,-2.173812151E0,1.380167389E1,-9.328351974E0,1.679969678E1
2.235693480E0,-3.046975613E0,1.776342773E1,-1.135739517E1,2.130290709E1
2.255609821E0,-2.623615503E0,1.590185928E1,-1.739637566E1,2.371468686E1
2.275527526E0,-2.148645401E0,1.320661545E1,-1.197153473E1,1.795408066E1
2.295444722E0,-2.989048004E0,1.137023067E1,-4.200213432E0,1.248432403E1
2.315361369E0,2.029259920E0,1.515975857E1,2.012408066E1,2.527676399E1
2.335278443E0,1.287714863E1,2.005962372E0,4.518537903E1,4.702726145E1
2.355197084E0,8.884405136E0,-4.239918709E0,-2.933111668E0,1.027193795E1
2.375112632E0,8.258741379E0,-4.020221710E0,-2.029259300E1,2.227461161E1
2.395029136E0,1.267189693E1,-5.912674904E0,-2.187912941E1,2.596599700E1
2.414947533E0,1.705574036E0,1.562508106E0,-1.793481636E1,1.808336396E1
2.434855920E0,-3.399080038E0,3.091878891E-1,-8.658997536E0,9.307393866E0
2.454782800E0,3.631631374E0,-1.458845139E1,-4.736262798E0,1.576210156E1
2.474697738E0,1.333651257E1,-3.484605789E1,6.692377090E0,3.790644047E1
2.494614730E0,8.183702469E0,-2.175222015E1,2.470069313E1,3.391542877E1
2.514531112E0,1.535698652E0,-1.043017673E1,9.868207932E0,1.444051539E1
2.534441880E0,1.145408869E0,-3.939462185E0,1.780794907E1,1.827441856E1
2.554364101E0,2.166373014E0,2.803510666E0,1.863665390E1,1.897044313E1
2.574276252E0,2.569857121E0,6.039896965E0,9.104921341E0,1.122426450E1
2.594201138E0,-8.045017719E-1,6.019129753E0,1.752977753E1,1.855182595E1
2.614117256E0,-9.311372757E0,1.453082085E0,1.988473892E1,2.200490746E1
2.634033394E0,-1.420589828E1,-8.680920601E-1,1.092923450E1,1.794461749E1
2.653952238E0,-1.026252747E1,9.718480110E-1,5.584654331E0,1.172400625E1
2.673868722E0,-6.400906086E0,3.129221916E0,3.704082966E0,8.030184253E0
2.693785572E0,-6.213101387E0,4.953894138E0,2.324965954E0,8.279442171E0
2.713695078E0,-5.325327396E0,5.152513504E0,3.356533527E0,8.134729535E0
2.733619639E0,-2.817978859E0,3.466434479E-1,4.057658195E0,4.952348590E0
2.753536836E0,7.184356689E0,-1.389777374E1,6.929868698E0,1.711099577E1
2.773446158E0,4.255785370E1,-3.653253174E1,1.428504944E1,5.787797011E1
2.793370943E0,2.448813820E1,-2.215603447E1,1.269467258E1,3.537956314E1
2.813287854E0,1.467410278E1,-1.088963223E1,-1.963738918E0,1.837851063E1
2.833205803E0,2.956240416E0,-4.882068634E0,-3.692137241E0,6.797486959E0
2.853121982E0,-4.665028572E0,-1.082039833E0,-2.957546234E0,5.628532802E0
2.873023695E0,-6.346306801E0,2.066315651E0,-6.173790455E0,9.091807244E0
2.892944900E0,-3.105401516E0,7.985214710E0,-8.374979019E0,1.198112875E1
2.912872960E0,-1.762414694E0,1.279673386E1,-9.522813797E0,1.604825491E1
2.932789953E0,-2.145635128E0,1.620666885E1,-1.510151100E1,2.225568467E1
2.952706945E0,-2.212422132E0,1.691654205E1,-1.569571877E1,2.318231641E1
2.972624019E0,-3.412025928E0,1.559974575E1,-1.149881268E1,1.967782207E1
2.992533342E0,-2.676992655E0,1.312853813E1,-4.334688187E0,1.408241190E1
3.012450335E0,5.675378799E0,1.684204483E1,2.667900276E1,3.205672452E1
3.032375262E0,1.146457577E1,4.997884750E0,2.948528862E1,3.202807510E1
3.052292153E0,7.102066517E0,-2.968071938E0,7.544953346E0,1.077845633E1
3.072211078E0,-2.012141943E0,4.512008667E0,-1.547729683E1,1.624665056E1
3.092125650E0,4.833843231E0,-1.782104492E0,-1.565814972E1,1.648391912E1
3.112042704E0,1.321084595E1,-7.089192390E0,-1.789660072E1,2.334676459E1
3.131960876E0,3.194744587E0,-4.639958382E0,-1.214042282E1,1.338377649E1
3.151875753E0,2.904911041E0,-1.119100666E1,-2.813332319E0,1.189924271E1
3.171785442E0,9.356752396E0,-2.372259712E1,4.431909561E0,2.588343586E1
3.191710634E0,1.215909767E1,-2.563803482E1,1.388154984E1,3.158876242E1
3.211626873E0,2.019847631E0,-1.275836849E1,1.102509403E1,1.698259254E1
3.231544579E0,5.438253880E-1,-5.671400070E0,1.708673859E1,1.801158406E1
3.251461530E0,1.632090092E0,4.278359413E-1,2.141341782E1,2.147978641E1
3.271373762E0,3.821335316E0,4.507840157E0,1.133790779E1,1.278559266E1
3.291286910E0,3.281004667E0,6.902392864E0,1.387341499E1,1.583918124E1
3.311212224E0,-3.940618038E0,3.281451941E0,1.776959610E1,1.849472744E1
3.331129704E0,-1.227348328E1,7.708978653E-2,1.596451569E1,2.013728124E1
3.351046656E0,-1.262635899E1,1.056504250E-1,7.826426029E0,1.485560661E1
3.370964910E0,-8.712804794E0,1.955768108E0,5.484810352E0,1.047955824E1
3.390881252E0,-6.549266815E0,4.000555038E0,4.019412041E0,8.663314007E0
3.410797085E0,-6.519278526E0,5.234301567E0,2.812125206E0,8.820824994E0
3.430714749E0,-5.179626465E0,2.315902710E0,3.016992569E0,6.426054765E0
3.450625008E0,-2.675668240E0,-4.947494507E0,3.132830620E0,6.438286272E0
3.470548104E0,3.111912155E1,-3.439775848E1,8.271333694E0,4.711709325E1
3.490465707E0,3.773408127E1,-3.095380020E1,2.065806961E1,5.299768369E1
3.510382964E0,2.215186501E1,-1.538562489E1,6.861451149E0,2.782987762E1
3.530299143E0,1.019613838E1,-4.867817879E0,-4.086237907E0,1.201475048E1
3.550208547E0,-1.928679705E0,-4.555025101E-1,-4.487277031E0,4.905399382E0
3.570126292E0,-7.086930275E0,1.047172546E0,-4.986375809E0,8.728407344E0
3.590050793E0,-4.443310261E0,5.160802841E0,-7.109979630E0,9.845237548E0
3.609968050E0,-2.205655575E0,9.975433350E0,-8.504595757E0,1.329294309E1
3.629885652E0,-1.533010006E0,1.404331303E1,-1.265082645E1,1.896333753E1
3.649795219E0,-2.047292709E0,1.518769932E1,-1.697964478E1,2.287282131E1
3.669718946E0,-4.366342545E0,1.458919239E1,-1.456449604E1,2.107211491E1
3.689636081E0,-6.441493511E0,1.373051834E1,-9.041814804E0,1.765713418E1
3.709553115E0,-4.809774399E0,1.294147587E1,-1.941789746E0,1.394224784E1
3.729469294E0,1.532388687E1,1.472867966E1,4.709424591E1,5.166839954E1
3.749379430E0,1.041068268E1,2.241321564E0,2.448607063E1,2.670156346E1
3.769304092E0,2.907121658E0,2.422531128E0,-1.129548645E1,1.191251558E1
3.789215918E0,6.154043198E0,1.748045921E0,-1.722260857E1,1.837242929E1
3.809138627E0,1.732115746E1,-6.768583298E0,-2.148336983E1,2.841428153E1
3.829055783E0,4.203582287E0,-2.888763428E0,-1.456816387E1,1.543523426E1
3.848974037E0,-1.548412800E0,-3.875777245E0,-7.430944920E0,8.522803168E0
3.868891599E0,6.338992596E0,-2.060447311E1,-4.599275112E0,2.204269655E1
3.888800841E0,1.299244690E1,-3.333023453E1,6.879738808E0,3.642854672E1
3.908724140E0,6.837777615E0,-1.969918442E1,2.214331818E1,3.041610773E1
3.928641051E0,8.696465492E-1,-9.453426361E0,1.379758453E1,1.674804150E1
3.948558105E0,2.298885584E0,-3.200127602E0,1.925190353E1,1.965099186E1
3.968468465E0,5.692748547E0,4.011784554E0,1.506419945E1,1.659614131E1
3.988391398E0,4.865439892E0,8.340345383E0,1.353724289E1,1.662801285E1
4.008309165E0,-2.074271917E0,3.841136217E0,2.023310661E1,2.069868437E1
4.028219098E0,-9.896818161E0,-5.220022202E-1,1.985558510E1,2.219152441E1
4.048141951E0,-1.175815773E1,-1.383928299E0,6.407266140E0,1.346189400E1
4.068059655E0,-1.020421600E1,7.099294662E-2,4.008225918E0,1.096343647E1
4.087977624E0,-9.547670364E0,2.682133675E0,4.988201618E0,1.110108129E1
4.107895187E0,-8.267514229E0,4.655138969E0,4.471005917E0,1.048866075E1
4.127811284E0,-5.376602650E0,3.064252377E0,4.261428356E0,7.513805315E0
4.147728236E0,-2.985850334E0,-4.811395645E0,4.793579102E0,7.419112540E0
4.167645310E0,2.100459290E1,-2.786776352E1,1.076165676E1,3.651874070E1
4.187562486E0,3.916365051E1,-2.820284271E1,1.962051964E1,5.209756856E1
4.207479377E0,2.552120781E1,-1.936763382E1,5.419359207E0,3.249317993E1
4.227396451E0,1.027387428E1,-1.082025719E1,-5.800540924E0,1.600864558E1
4.247312773E0,-8.644813299E-1,-5.099045753E0,-3.840966702E0,6.442097544E0
4.267232410E0,-6.037744999E0,-2.176655769E0,-5.029871464E0,8.154250545E0
4.287147449E0,-3.789715052E0,4.419907570E0,-8.516633987E0,1.031651964E1
4.307057301E0,-2.003645420E0,1.064607811E1,-9.654735565E0,1.451094390E1
4.326973378E0,-2.023105383E0,1.502273750E1,-1.214741898E1,1.942512253E1
4.346891673E0,-4.248376846E0,1.621407700E1,-1.714567566E1,2.397747260E1
4.366812898E0,-5.968344688E0,1.458326817E1,-1.799356270E1,2.391779980E1
4.386731660E0,-6.827475548E0,1.447636223E1,-1.185025978E1,1.991502304E1
4.406648978E0,-5.217608929E0,1.397304058E1,-4.673592567E0,1.563047579E1
4.426555961E0,1.727626991E1,1.581330299E1,4.515864182E1,5.087074782E1
4.446475843E0,1.613260269E1,2.480974197E0,3.727288818E1,4.069010071E1
4.466392958E0,4.148992538E0,2.670558453E0,-1.745355034E1,1.813759744E1
4.486309951E0,7.677377701E0,1.395280361E0,-2.117975044E1,2.257145907E1
4.506232558E0,1.071625328E1,-4.696283340E0,-2.320150566E1,2.598466907E1
4.526151016E0,2.654355526E0,-5.420016289E0,-1.752094269E1,1.853120645E1
4.546060867E0,3.150272846E0,-1.006985188E1,-5.899118423E0,1.208824776E1
4.565984737E0,1.179815197E1,-3.031822777E1,-5.115348816E0,3.293263000E1
4.585902136E0,1.435509109E1,-3.019144821E1,2.715474892E1,4.306939254E1
4.605811520E0,4.616195202E0,-1.390368652E1,1.949104118E1,2.438283092E1
4.625735389E0,1.214560032E0,-6.792108536E0,6.407294273E0,9.416013718E0
4.645653033E0,1.441714764E0,6.988754272E-1,1.918085098E1,1.924764954E1
4.665570188E0,2.357159138E0,6.779687881E0,1.610744095E1,1.763434209E1
4.685487344E0,1.060319424E0,9.203503609E0,1.157500648E1,1.482597488E1
4.705398986E0,-4.964738846E0,5.274540424E0,1.959804535E1,2.089384574E1
4.725316751E0,-1.141672325E1,-1.078576565E0,1.743362236E1,2.086710535E1
4.745229838E0,-1.099438667E1,-2.693062782E0,1.107994080E1,1.583964057E1
4.765150859E0,-6.384788513E0,5.303759575E-1,5.790174484E0,8.635562725E0
4.785072714E0,-5.921648979E0,2.767717361E0,3.641231060E0,7.482295748E0
4.804990866E0,-5.937398911E0,1.567805290E0,2.513844013E0,6.635520400E0
4.824899436E0,-5.513152599E0,-4.268006325E0,2.701421976E0,7.477192673E0
4.844823407E0,6.701473713E0,-1.844470978E1,-3.656061888E-1,1.962780519E1
4.864740461E0,4.038387299E1,-2.684819031E1,9.832476616E0,4.948090659E1
4.884649763E0,3.195063782E1,-1.756550980E1,2.058675194E1,4.187128786E1
4.904566817E0,1.929901314E1,-7.656725883E0,-1.562829375E0,2.082113818E1
4.924491419E0,2.592113972E0,-3.871774673E0,-8.969416618E0,1.010742937E1
4.944407597E0,-5.829994202E0,-2.408902168E0,-5.574739933E0,8.418394584E0
4.964325669E0,-5.870301247E0,1.789544106E0,-4.956398487E0,7.888522726E0
4.984233242E0,-3.927888155E0,7.771876335E0,-7.395625591E0,1.142478206E1
5.004159796E0,-3.445684910E0,1.342425156E1,-1.208237839E1,1.838660224E1
5.024077460E0,-1.828728557E0,1.561219406E1,-1.789406586E1,2.381769184E1
5.043985216E0,-5.916954041E0,1.475735664E1,-1.663201141E1,2.300899224E1
5.063907031E0,-7.683617592E0,1.391192150E1,-1.056316090E1,1.908297428E1
5.083828316E0,-5.051971436E0,1.317005634E1,-3.225696564E0,1.446989695E1
5.103745431E0,1.619037056E1,1.706327248E1,4.922267151E1,5.455414519E1
5.123662362E0,1.165864754E1,2.449345589E0,2.696557999E1,2.947992300E1
5.143572214E0,2.936988592E0,3.073469639E0,-1.645930099E1,1.699943254E1
5.163496653E0,1.787443638E0,4.667031765E0,-1.764476395E1,1.833886133E1
5.183413503E0,1.431115913E1,-2.000197411E0,-1.947969055E1,2.425424518E1
5.203329947E0,7.931929588E0,-1.821098328E0,-1.534888077E1,1.737296886E1
5.223240185E0,2.965717793E0,-4.499138832E0,-7.889370918E0,9.554051797E0
5.243164502E0,1.093350983E1,-1.937836266E1,-8.011423111E0,2.364837154E1
5.263071139E0,1.615459633E1,-3.367966461E1,2.871303558E0,3.746378485E1
5.282998528E0,6.484148502E0,-2.114900398E1,3.366991043E1,4.028631802E1
5.302915907E0,-1.439005852E0,-1.043163109E1,1.080319405E1,1.508637354E1
5.322831923E0,-1.364233017E0,-3.901415348E0,1.848629761E1,1.894268652E1
5.342749648E0,-1.638152122E0,3.411218166E0,1.594473839E1,1.638763662E1
5.362666722E0,1.351057053E0,8.222126961E0,1.115524864E1,1.392365969E1
5.382576065E0,-1.966312647E0,6.511593342E0,1.878183746E1,1.997560141E1
5.402500891E0,-8.937464714E0,-3.245100975E-1,1.922027397E1,2.119911587E1
5.422417721E0,-1.178628159E1,-2.569993496E0,1.054649734E1,1.602341744E1
5.442334774E0,-9.011296272E0,-8.681073189E-1,6.424022675E0,1.110068188E1
5.462247434E0,-6.646035194E0,1.779643059E0,4.438782215E0,8.187777524E0
5.482169187E0,-6.453988552E0,1.424307346E0,2.308530807E0,7.000852386E0
5.502091063E0,-5.285919189E0,-3.597304344E0,3.185945272E0,7.143653652E0
5.521995340E0,2.400329590E0,-1.353840637E1,4.229295254E-1,1.375604953E1
5.541924926E0,3.601160431E1,-2.422385025E1,3.174972296E0,4.351679003E1
5.561836181E0,3.632802963E1,-1.650029182E1,2.451457787E1,4.682894292E1
5.581752258E0,2.459058189E1,-8.398304939E0,1.216610193E0,2.601361920E1
5.601662639E0,6.557576180E0,-5.823225021E0,-8.256109238E0,1.204471231E1
5.621583741E0,-4.518913746E0,-4.016263962E0,-4.897494316E0,7.780514651E0
5.641504315E0,-7.202809334E0,-1.098904610E0,-3.864299297E0,8.247476141E0
5.661421409E0,-4.255825520E0,4.884182453E0,-6.775373459E0,9.374058598E0
5.681338341E0,-3.874449730E0,1.030264854E1,-9.067624092E0,1.426105657E1
5.701255598E0,-3.378139973E0,1.447753334E1,-1.433129215E1,2.064937617E1
5.721173059E0,-4.608649254E0,1.529931259E1,-1.829247093E1,2.428833272E1
5.741089461E0,-7.731279373E0,1.390808487E1,-1.537632370E1,2.212778425E1
5.761007878E0,-7.799837589E0,1.282381248E1,-8.069142342E0,1.704108832E1
5.780918035E0,-4.079503536E0,1.251195908E1,5.645813346E-1,1.317232785E1
5.800840582E0,2.209059143E1,1.173200226E1,5.039396667E1,5.625998564E1
5.820757472E0,1.165081596E1,-8.106203079E-1,1.228128624E1,1.694782020E1
5.840673936E0,1.348532200E0,3.411052704E0,-1.978667831E1,2.012377843E1
5.860591682E0,1.105056381E1,-5.090417862E-1,-2.233683014E1,2.492605193E1
5.880508695E0,7.802266598E0,-2.867321014E0,-2.045962524E1,2.208377592E1
5.900425057E0,3.452873230E-1,-2.898650169E0,-1.308597279E1,1.340761276E1
5.920334969E0,5.420515537E0,-9.419360161E0,-3.974730968E0,1.157172506E1
5.940258004E0,1.713239479E1,-3.322126007E1,-6.426226616E0,3.792713357E1
5.960182626E0,1.390499496E1,-2.649660873E1,3.532383728E1,4.629462863E1
5.980094553E0,2.286935806E0,-1.159974098E1,1.444568825E1,1.866713623E1
6.000012258E0,1.679840088E-1,-7.430074215E0,1.319939995E1,1.514788370E1
6.019922028E0,-1.422742605E0,9.206042290E-1,1.910867310E1,1.918366743E1
6.039844839E0,1.210289001E-1,7.165074348E0,1.123004150E1,1.332166546E1
6.059761934E0,-8.988475800E-2,7.921541691E0,1.751132393E1,1.921992112E1
6.079670911E0,-7.317572117E0,1.582157135E0,1.829957771E1,1.977181396E1
6.099581210E0,-1.231555653E1,-2.260594368E0,9.639421463E0,1.580195132E1
6.119498711E0,-1.158571434E1,-1.330136299E0,7.347343445E0,1.378337749E1
6.139415480E0,-8.487610817E0,1.318804264E0,5.740824223E0,1.033130412E1
6.159339472E0,-7.406465530E0,2.679594517E0,3.394430637E0,8.576602928E0
6.179256403E0,-5.924690247E0,-1.071977615E-1,3.306756973E0,6.785874119E0
6.199181351E0,-3.395998716E0,-7.540128708E0,3.138070583E0,8.844989271E0
6.219098587E0,2.148715591E1,-2.666308975E1,4.833117962E0,3.458290407E1
6.239015234E0,4.444142151E1,-2.448762321E1,2.061107063E1,5.476769001E1
6.258933122E0,2.803396988E1,-1.394566822E1,5.682989597E0,3.182265702E1
6.278845679E0,1.264772034E1,-7.034465790E0,-7.140165329E0,1.613785920E1
6.298764890E0,-3.954095840E-1,-2.938468933E0,-5.067022324E0,5.870746429E0
6.318683856E0,-7.575078487E0,-8.474817276E-1,-4.094155312E0,8.652291435E0
6.338600930E0,-4.515687943E0,3.959971428E0,-6.504001617E0,8.852957040E0
6.358517353E0,-2.442079544E0,9.287261963E0,-9.251421928E0,1.333438394E1
6.378435017E0,-3.797209740E0,1.442869473E1,-1.433398247E1,2.068983051E1
6.398352092E0,-4.831239223E0,1.619134712E1,-2.058384705E1,2.663072198E1
6.418269818E0,-7.915150642E0,1.562553787E1,-1.847530365E1,2.545867020E1
6.438178855E0,-8.596843719E0,1.430935192E1,-1.048403168E1,1.971238683E1
6.458103274E0,-5.447208405E0,1.276294136E1,-1.654760838E0,1.397508444E1
6.478019127E0,1.773479652E1,1.733070183E1,4.371252060E1,5.025595179E1
6.497926354E0,1.461480331E1,3.358259201E0,2.438367462E1,2.862575709E1
6.517846785E0,2.141133070E0,2.854541779E0,-1.499884892E1,1.541746829E1
6.537762964E0,8.615621567E0,5.037641525E-1,-1.811400032E1,2.006488776E1
6.557688278E0,2.335696411E1,-7.055397034E0,-1.830874252E1,3.050469558E1
6.577605291E0,7.927915096E0,-3.452187538E0,-1.226809216E1,1.500918125E1
6.597522324E0,9.310474396E-1,-6.000747681E0,-6.689870834E0,9.034942935E0
6.617432013E0,8.215068817E0,-2.435392570E1,-2.376903057E0,2.581183297E1
6.637351020E0,1.347978020E1,-3.017719841E1,2.034909439E1,3.881305735E1
6.657267362E0,2.582472324E0,-1.537455368E1,1.241496086E1,1.992930800E1
6.677191353E0,-1.719732523E0,-9.133325577E0,9.639368057E0,1.339001615E1
6.697116239E0,-1.194386721E0,-3.415610790E0,2.085041046E1,2.116205503E1
6.717025338E0,2.635617256E-1,3.123888016E0,1.429568291E1,1.463539172E1
6.736933176E0,3.199266911E0,7.725248337E0,1.198103905E1,1.461027266E1
6.756857859E0,-1.950963020E0,5.309107780E0,1.866703415E1,1.950515435E1
6.776767751E0,-8.753419876E0,-2.473835945E-1,1.519673347E1,1.753922081E1
6.796686982E0,-1.187670708E1,-2.070032597E0,7.550407410E0,1.422497304E1
6.816601858E0,-9.880814552E0,1.040067673E-1,8.096343994E0,1.277466632E1
6.836525830E0,-8.004586220E0,2.711267948E0,5.385127068E0,1.002117598E1
6.856442924E0,-8.269138336E0,3.619914532E0,4.357735634E0,1.002358668E1
6.876359957E0,-6.135398865E0,1.706580639E0,3.505652428E0,7.269465981E0
6.896267001E0,-2.673427105E0,-5.409964561E0,4.387217522E0,7.460737673E0
6.916188226E0,2.077451706E1,-2.651126862E1,1.080040455E1,3.537056207E1
6.936103550E0,4.501767731E1,-2.603685951E1,1.346815586E1,5.372057842E1
6.956021804E0,2.502195358E1,-1.402935410E1,3.843599081E0,2.894294718E1
6.975946060E0,1.116062260E1,-5.980801582E0,-2.578757286E0,1.292205376E1
6.995861445E0,1.325011253E0,-1.098161697E0,-1.404714227E0,2.221449075E0
7.015779252E0,-5.574975967E0,-4.045772552E-1,-3.841911793E0,6.782648894E0
7.035696285E0,-4.360315800E0,4.335255146E0,-7.315556526E0,9.556367424E0
7.055612647E0,-4.077709675E0,1.008891487E1,-9.885942459E0,1.470189708E1
7.075530352E0,-4.339700222E0,1.519698906E1,-1.259443283E1,2.020893893E1
7.095447446E0,-3.892349005E0,1.640223312E1,-1.702254486E1,2.395726749E1
7.115364276E0,-5.456387043E0,1.437045956E1,-1.524075508E1,2.164631338E1
7.135281371E0,-6.356722355E0,1.218457794E1,-8.614468575E0,1.621976965E1
7.155199869E0,-4.522081375E0,1.249995804E1,2.942727089E0,1.361461765E1
7.175115620E0,9.177181244E0,1.472717476E1,3.481893921E1,3.890332710E1
7.195032390E0,1.057576370E1,-4.153528214E-1,2.482836533E1,2.699012821E1
7.214950053E0,1.960104465E0,1.930943966E0,-8.712117195E0,9.136276054E0
7.234866598E0,2.423826694E0,2.866774559E0,-1.417492867E1,1.466362625E1
7.254783042E0,1.756657410E1,-3.724463463E0,-1.858439445E1,2.584252060E1
7.274705141E0,7.655848980E0,-1.898333549E0,-1.583080101E1,1.768699959E1
7.294610863E0,1.714102745E0,-6.581555367E0,-8.781480789E0,1.110717894E1
7.314526980E0,6.754485130E0,-2.136484146E1,-8.218352795E-1,2.242219733E1
7.334451725E0,1.803308487E1,-2.775991058E1,2.163410187E1,3.954540617E1
7.354362736E0,5.816173077E0,-1.607528114E1,1.112992859E1,2.039896673E1
7.374280664E0,1.075025558E0,-7.620082855E0,1.006605721E1,1.267070836E1
7.394204859E0,1.154633045E0,-1.325707436E0,2.135729599E1,2.142953032E1
7.414120367E0,3.077952385E0,3.866654158E0,1.411656857E1,1.495668123E1
7.434036993E0,2.731507301E0,8.149200439E0,1.187173176E1,1.465635067E1
7.453938971E0,-3.507052660E0,4.334042072E0,1.866243553E1,1.947741869E1
7.473871589E0,-1.145577621E1,-2.499470234E0,1.750601578E1,2.106994894E1
7.493786893E0,-1.252342987E1,-3.865333557E0,8.240888596E0,1.548190376E1
7.513705757E0,-9.104978561E0,-1.012674332E0,6.937679291E0,1.149162903E1
7.533622750E0,-6.856697083E0,2.496140003E0,5.017908096E0,8.855755838E0
7.553539621E0,-6.184484959E0,3.378794193E0,3.457327127E0,7.849663386E0
7.573456023E0,-3.922103882E0,-1.361876488E0,3.064502001E0,5.160308028E0
7.593373850E0,1.148195744E0,-1.034129620E1,2.348288536E0,1.066654675E1
7.613290965E0,3.535433578E1,-2.834912491E1,1.306154919E1,4.716148862E1
7.633202383E0,3.874147034E1,-2.078786469E1,2.040515518E1,4.847068392E1
7.653125011E0,2.336215973E1,-1.051161671E1,-2.824207306E0,2.577325629E1
7.673041373E0,6.639773369E0,-6.029551506E0,-5.855980873E0,1.071142352E1
7.692958366E0,-3.298652887E0,-2.418198586E0,-2.493586779E0,4.790278728E0
7.712876498E0,-6.817587852E0,-8.483219147E-2,-5.332537651E0,8.655787568E0
7.732793145E0,-4.783658504E0,4.830173492E0,-8.804389954E0,1.112345482E1
7.752710117E0,-4.070433140E0,1.029126740E1,-1.186692715E1,1.622660071E1
7.772627049E0,-3.964947701E0,1.561333656E1,-1.611769104E1,2.278765133E1
7.792544123E0,-3.659790516E0,1.661722946E1,-1.977818489E1,2.609028515E1
7.812461278E0,-6.022449493E0,1.467026138E1,-1.636062241E1,2.278500455E1
7.832378271E0,-6.827685356E0,1.226074219E1,-8.581389427E0,1.644941734E1
7.852295202E0,-4.532068729E0,1.144318676E1,5.605023503E-1,1.232072778E1
7.872215816E0,1.680487442E1,1.033166981E1,4.479093552E1,4.894256950E1
7.892128700E0,1.221813107E1,-2.382612228E0,2.202052498E1,2.529551518E1
7.912047117E0,-3.408832550E-1,2.456497192E0,-1.712597847E1,1.730461552E1
7.931964373E0,2.842806816E0,3.175381660E0,-1.725494957E1,1.777351636E1
7.951879311E0,1.613467407E1,-4.066238403E-1,-1.750304794E1,2.380860638E1
7.971796874E0,5.934876442E0,3.490362167E-1,-1.254181576E1,1.387954348E1
7.991713785E0,1.732315063E0,-4.772655487E0,-6.993575096E0,8.642294169E0
8.011630147E0,1.271831894E1,-2.781965446E1,-6.724416733E0,3.131942834E1
8.031547872E0,1.703987503E1,-3.315982056E1,2.329800415E1,4.396280289E1
8.051464865E0,4.202355385E0,-1.697047043E1,1.904924393E1,2.585595389E1
8.071381959E0,5.295753479E-1,-7.561874390E0,1.160959244E1,1.386524543E1
8.091298972E0,8.330240250E-1,-5.059208870E-1,2.091139030E1,2.093409013E1
8.111213340E0,1.977811337E0,5.452615261E0,1.391922379E1,1.507937471E1
8.131132937E0,2.038226604E0,9.530786514E0,1.404954433E1,1.709912148E1
8.151045576E0,-3.605440617E0,4.370885372E0,2.076450729E1,2.152367543E1
8.170967268E0,-1.194662094E1,-3.349770546E0,1.467746544E1,1.921901939E1
8.190884566E0,-1.218869877E1,-3.254548550E0,7.582354069E0,1.471898628E1
8.210800603E0,-8.562395096E0,1.157388687E-1,3.981857777E0,9.443685542E0
8.230718145E0,-7.694003105E0,2.165232182E0,3.436378002E0,8.700264821E0
8.250635260E0,-7.865170956E0,2.999961853E0,3.477446556E0,9.107871312E0
8.270551621E0,-5.058628559E0,6.741685867E-1,2.980777264E0,5.910098077E0
8.290469408E0,3.386168480E-1,-6.101152420E0,2.883954048E0,6.756915951E0
8.310386400E0,3.595373917E1,-2.938953018E1,1.349283314E1,4.835775419E1
8.330302661E0,3.950376892E1,-2.479372215E1,1.749304771E1,4.981247972E1
8.350215442E0,2.237335014E1,-1.351058960E1,4.213553667E-1,2.613963214E1
8.370137541E0,8.984532356E0,-4.937499046E0,-4.639646530E0,1.125286801E1
8.390054839E0,-2.229825020E0,-1.195659637E0,-1.783777595E0,3.095736438E0
8.409971832E0,-7.730855465E0,2.477350235E-1,-5.232959747E0,9.338702618E0
8.429889740E0,-5.516639709E0,5.216479301E0,-8.555065155E0,1.143827390E1
8.449805654E0,-4.499649525E0,1.088823509E1,-1.144247055E1,1.642347836E1
8.469722627E0,-4.537036419E0,1.553888130E1,-1.471629333E1,2.187717580E1
8.489639762E0,-5.091075897E0,1.590623093E1,-1.916454315E1,2.542060090E1
8.509549756E0,-5.152878761E0,1.424427509E1,-1.589614487E1,2.195766276E1
8.529472994E0,-5.862488747E0,1.209388065E1,-9.092096329E0,1.622642719E1
8.549390760E0,-4.720290184E0,1.094720745E1,-2.666481495E0,1.221608014E1
8.569307895E0,1.074602127E1,1.399849224E1,3.459626007E1,3.883730126E1
8.589218337E0,1.112240410E1,1.903084755E0,2.579244804E1,2.815279703E1
8.609141901E0,3.448460102E0,2.699747086E-1,-3.234295130E0,4.735549430E0
8.629059931E0,6.194707394E0,2.208763599E0,-1.491369724E1,1.629942949E1
8.648978490E0,1.982079124E1,-4.749235153E0,-1.925711441E1,2.804024707E1
8.668895646E0,4.764786243E0,-2.089355469E0,-1.475973606E1,1.564986910E1
8.688810930E0,-2.735324144E0,-2.079969406E0,-8.067392349E0,8.768756481E0
8.708727861E0,4.897462368E0,-1.682424545E1,-5.139100075E0,1.826063313E1
8.728645016E0,1.790387535E1,-3.360169220E1,4.816616058E0,3.837736653E1
8.748554238E0,7.239843369E0,-2.150715256E1,2.279865837E1,3.216755767E1
8.768478981E0,1.860334396E0,-9.138115883E0,1.267409992E1,1.573527295E1
8.788395364E0,3.757271767E0,-2.440066338E0,1.821682739E1,1.875963260E1
8.808313151E0,6.258623600E0,4.564956665E0,1.690978622E1,1.859973303E1
8.828232667E0,3.341938496E0,9.457325935E0,1.310089302E1,1.649978681E1
8.848145896E0,-4.030174255E0,6.075491905E0,2.054597092E1,2.180116573E1
8.868058270E0,-1.266029835E1,-2.777305603E0,1.510200500E1,1.990143552E1
8.887981793E0,-1.238538837E1,-3.794003963E0,5.714145660E0,1.415781664E1
8.907897342E0,-1.120072269E1,-1.495047092E0,7.874746799E0,1.377327092E1
8.927815392E0,-8.891545296E0,1.389846325E0,7.008076191E0,1.140633081E1
8.947732344E0,-7.545651436E0,1.945159912E0,4.638360977E0,9.068345782E0
8.967649520E0,-3.713349342E0,-3.968041420E0,4.719384193E0,7.197701245E0
8.987566634E0,6.171869755E0,-1.672773552E1,2.860704899E0,1.805803822E1
9.007483505E0,4.382913589E1,-2.859321976E1,1.666781807E1,5.492159437E1
9.027400579E0,3.415291595E1,-1.718073273E1,1.475880909E1,4.098074781E1
9.047316900E0,2.268566132E1,-9.415633202E0,-5.259323120E0,2.511879491E1
9.067232591E0,6.771491051E0,-5.631748199E0,-4.709980965E0,9.987672377E0
9.087151801E0,-4.560339928E0,-4.003402710E0,-3.996177673E0,7.265904590E0
9.107073249E0,-7.210022926E0,-9.328117371E-1,-7.931556702E0,1.075937545E1
9.126975350E0,-5.050674915E0,5.077429295E0,-1.056041336E1,1.275977804E1
9.146871326E0,-4.855476856E0,1.117884159E1,-1.604220963E1,2.014682716E1
9.166811532E0,-5.330893040E0,1.576369667E1,-2.124075127E1,2.698299590E1
9.186691854E0,-6.530878067E0,1.653230858E1,-2.243293381E1,2.862177693E1
9.206653249E0,-6.650885582E0,1.573268509E1,-1.491616249E1,2.267693900E1
9.226570180E0,-5.931320667E0,1.399138451E1,-6.834102631E0,1.666266377E1
9.246487295E0,1.365486145E0,1.457178783E1,1.619961548E1,2.183183672E1
9.266404593E0,1.876541901E1,9.924886703E0,3.772730255E1,4.328964870E1
9.286321504E0,1.504933548E1,-1.841083527E0,1.694395065E1,2.273696441E1
9.306223828E0,3.365666866E0,2.184439182E0,-2.139542198E1,2.176840761E1
9.326155632E0,8.499479294E0,1.392806053E0,-1.905143738E1,2.090785315E1
9.346058525E0,1.232118034E1,-2.083799362E0,-1.790878105E1,2.183753978E1
9.365975539E0,2.873308659E0,-3.375034332E0,-1.383884811E1,1.453136183E1
9.385904535E0,5.374072552E0,-1.172279358E1,-7.023233414E0,1.468435741E1
9.405822239E0,1.680810928E1,-3.486335754E1,-7.448773384E0,3.941383592E1
9.425740026E0,1.451956272E1,-2.855254364E1,4.084537888E1,5.190771065E1
9.445657812E0,9.362497330E-1,-1.327693748E1,1.200878143E1,1.792664118E1
9.465568111E0,9.149928093E-1,-6.487531662E0,1.355629444E1,1.505650683E1
9.485477474E0,-1.794743538E-1,1.627807617E0,1.945154190E1,1.952035991E1
9.505400652E0,3.754272461E-1,7.440929890E0,1.090526009E1,1.320731164E1
9.525320839E0,3.909921646E-2,7.668412209E0,1.795192909E1,1.952121494E1
9.545234454E0,-6.890241623E0,-6.104369164E-1,1.940335846E1,2.059947529E1
9.565155597E0,-1.232229424E1,-4.707200527E0,1.027893639E1,1.672283484E1
9.585078164E0,-1.083888054E1,-2.794855595E0,9.082439423E0,1.441468886E1
9.604994771E0,-7.316352367E0,1.399973869E0,5.350068092E0,9.171268581E0
9.624904398E0,-7.081678867E0,3.536299944E0,3.079308510E0,8.493393537E0
9.644814026E0,-5.741689682E0,3.174795628E0,1.555505514E0,6.742842508E0
9.664730938E0,-4.258666039E0,-1.608177185E0,9.266592264E-1,4.645553531E0
9.684647971E0,1.177549744E1,-1.652488708E1,6.294304371E0,2.124505826E1
9.704569582E0,4.814501953E1,-3.213745117E1,1.965366173E1,6.113121210E1
9.724482282E0,2.902328110E1,-1.848293686E1,1.059140110E1,3.600204963E1
9.744399356E0,1.661923409E1,-6.960145950E0,-5.906165123E0,1.896115397E1
9.764323184E0,3.049098492E0,-1.586236954E0,-5.525265217E0,6.507050407E0
9.784252323E0,-5.708863258E0,6.822299957E-2,-3.885293245E0,6.905887176E0
9.804165491E0,-6.160858154E0,2.561368942E0,-6.649820328E0,9.420026245E0
9.824080490E0,-5.011000633E0,8.242198944E0,-1.065152359E1,1.437007048E1
9.843994797E0,-4.695636272E0,1.411145020E1,-1.604468346E1,2.187724603E1
9.863921290E0,-3.307745218E0,1.731182098E1,-2.049314308E1,2.702978427E1
9.883833624E0,-3.655393124E0,1.642439842E1,-1.656047821E1,2.360873146E1
9.903750780E0,-5.803124428E0,1.367639351E1,-9.615151405E0,1.769664175E1
9.923667874E0,-5.938987255E0,1.207447815E1,-3.052966118E0,1.379801414E1
9.943576383E0,5.219586849E0,1.724286270E1,2.966750145E1,3.470909165E1
9.963503548E0,1.293470955E1,4.971035480E0,2.654768562E1,2.994657771E1
9.983418954E0,6.726557255E0,-4.453287125E-1,1.950212359E0,7.017707490E0
1.000333526E1,-2.171327591E0,4.468461037E0,-1.580393028E1,1.656641240E1
