"Time (s)","Linear Acceleration x (m/s^2)","Linear Acceleration y (m/s^2)","Linear Acceleration z (m/s^2)","Absolute acceleration (m/s^2)"
1.576755200E-2,2.496504784E-2,5.216816068E-2,-2.961444855E-2,6.497527349E-2
3.568303900E-2,3.341484070E-2,2.701580524E-2,-2.698421478E-2,5.074005478E-2
5.560198500E-2,5.384981632E-2,2.728605270E-2,-4.888725281E-2,7.768072397E-2
7.552089000E-2,6.648051739E-2,3.642633557E-2,-4.645919800E-2,8.891003427E-2
9.543487200E-2,8.553373814E-2,3.491392732E-2,-3.292465210E-2,9.807668120E-2
1.153458420E-1,8.573067188E-2,6.325671077E-2,-2.953529358E-3,1.065827514E-1
1.352684100E-1,9.430098534E-2,4.462927580E-2,2.540493011E-2,1.073771790E-1
1.551849140E-1,9.323692322E-2,3.652825952E-2,-2.067661285E-2,1.022494984E-1
1.751036970E-1,9.883630276E-2,2.750611305E-2,-4.197025299E-2,1.108454020E-1
1.950011990E-1,9.352719784E-2,2.300137281E-2,-3.345870972E-2,1.019602135E-1
2.149350780E-1,9.024488926E-2,2.906048298E-2,-2.446174622E-3,9.484005208E-2
2.348504030E-1,6.788158417E-2,3.742033243E-2,1.621246338E-5,7.751252164E-2
2.547686160E-1,6.822073460E-2,3.182750940E-2,-9.739875793E-3,7.590733933E-2
2.746855680E-1,6.779742241E-2,2.501875162E-2,-2.155876160E-2,7.541358379E-2
2.946008110E-1,6.027543545E-2,2.637997270E-2,-2.770996094E-2,7.139238764E-2
3.145188620E-1,6.824946404E-2,4.106694460E-2,-2.946281433E-2,8.492667842E-2
3.344358140E-1,6.452441216E-2,2.620777488E-2,-1.128768921E-2,7.055252763E-2
3.543455230E-1,4.095482826E-2,3.176549077E-2,-1.374626160E-2,5.362186186E-2
3.742692700E-1,4.245567322E-2,7.273015380E-2,-3.194999695E-2,9.007198102E-2
3.941860190E-1,4.889190197E-2,7.344904542E-2,-2.749252319E-2,9.241763459E-2
4.141031740E-1,4.361879826E-2,5.766725540E-2,-3.445434570E-2,8.009503009E-2
4.340181320E-1,4.749596119E-2,4.285153747E-2,-3.478717804E-2,7.281667631E-2
4.539359790E-1,5.202293396E-2,3.785374761E-2,-4.033565521E-2,7.593587391E-2
4.738377130E-1,7.321393490E-2,4.358467460E-2,-2.930736542E-2,9.010452703E-2
4.937531600E-1,7.009649277E-2,3.593707085E-2,-1.709651947E-2,8.060572149E-2
5.136770290E-1,6.680655479E-2,2.925151587E-2,-5.789756775E-3,7.315933452E-2
5.336032580E-1,5.851614475E-2,2.829349041E-2,-2.386760712E-2,6.924105333E-2
5.535185420E-1,6.337964535E-2,1.778447628E-2,-3.020763397E-2,7.242767559E-2
5.734367960E-1,5.991113186E-2,3.328153491E-2,-2.487754822E-2,7.291019608E-2
5.933453660E-1,5.181014538E-2,4.016274214E-2,-2.830696106E-2,7.140462915E-2
6.132685030E-1,5.597877502E-2,5.867666006E-2,-4.078674316E-2,9.077517341E-2
6.331867160E-1,7.284867764E-2,5.557048321E-2,-2.614688873E-2,9.528204567E-2
6.531044820E-1,7.200837135E-2,5.017879605E-2,-6.358146667E-3,8.799740421E-2
6.730194810E-1,7.314038277E-2,5.481404066E-2,-2.179718018E-2,9.396388513E-2
6.929370430E-1,6.673574448E-2,3.881290555E-2,-3.466606140E-2,8.462763757E-2
7.128385740E-1,6.993782520E-2,4.735022783E-2,-4.389667511E-2,9.518540621E-2
7.327554040E-1,6.970965862E-2,3.983789682E-2,-3.325271606E-2,8.690361128E-2
7.526872890E-1,5.558836460E-2,3.504404426E-2,-2.286243439E-2,6.957616131E-2
7.725886160E-1,5.477285385E-2,3.959953785E-2,-2.690887451E-2,7.274803396E-2
7.925052420E-1,6.290769577E-2,3.240165114E-2,-3.394031525E-2,7.848050830E-2
8.124375340E-1,7.094001770E-2,3.217414021E-2,-2.253246307E-2,8.108867555E-2
8.323459820E-1,6.474268436E-2,3.928753734E-2,-2.094078064E-2,7.857252740E-2
8.522710320E-1,6.229043007E-2,5.238965154E-2,-4.638099670E-2,9.368014796E-2
8.721861930E-1,5.743002892E-2,4.927662015E-2,-5.242919922E-2,9.206092790E-2
8.921038780E-1,4.178726673E-2,4.831305146E-2,-9.954452515E-3,6.464841628E-2
9.120206670E-1,3.433084488E-2,4.710912704E-2,-2.267837524E-3,5.833540818E-2
9.319364790E-1,5.495536327E-2,5.152738094E-2,-6.512641907E-3,7.561466421E-2
9.518531870E-1,6.147563457E-2,3.340443969E-2,-2.715969086E-2,7.505170914E-2
9.717701390E-1,7.686257362E-2,3.567734361E-2,-3.517436981E-2,9.174946519E-2
9.916729310E-1,7.754802704E-2,3.686735034E-2,-4.142475128E-2,9.533576473E-2
1.011603514E0,7.676434517E-2,3.418552876E-2,-4.768562317E-2,9.661953075E-2
1.031520303E0,7.004594803E-2,2.413156629E-2,-3.709506989E-2,8.285415823E-2
1.051437133E0,7.350957394E-2,2.349704504E-2,-1.111793518E-2,7.797036019E-2
1.071361206E0,7.152056694E-2,2.570769191E-2,-6.981849670E-3,7.632052898E-2
1.091270508E0,7.633101940E-2,3.248214722E-2,-3.440952301E-2,8.980829407E-2
1.111187176E0,7.624387741E-2,3.827616572E-2,-4.268646240E-2,9.539563815E-2
1.131103761E0,6.887876987E-2,4.581886530E-2,-4.530143738E-2,9.431793883E-2
1.151021690E0,7.164907455E-2,7.284370065E-2,-1.938724518E-2,1.039983648E-1
1.170937299E0,7.085478306E-2,6.160974503E-2,-1.183032990E-2,9.463676701E-2
1.190840294E0,6.126987934E-2,5.907091498E-2,-1.379776001E-2,8.621919330E-2
1.210771162E0,4.779827595E-2,3.665474057E-2,-2.249145508E-2,6.429705080E-2
1.230687911E0,4.108703136E-2,3.797784448E-2,-2.996349335E-2,6.346866747E-2
1.250595992E0,5.808174610E-2,4.093378782E-2,-3.108024597E-2,7.755672702E-2
1.270521327E0,6.582891941E-2,5.241528153E-2,-3.447055817E-2,9.093419461E-2
1.290437872E0,6.803512573E-2,4.253911972E-2,-3.192710876E-2,8.635794876E-2
1.310360968E0,6.216955185E-2,3.900900483E-2,-2.413272858E-2,7.726023702E-2
1.330271491E0,5.691003799E-2,2.809718251E-2,-2.390480042E-2,6.782067216E-2
1.350188321E0,6.484591961E-2,3.195473552E-2,-1.834774017E-2,7.458376486E-2
1.370105354E0,7.549822330E-2,3.644719720E-2,-2.239513397E-2,8.677512277E-2
1.390022143E0,6.956374645E-2,3.183445334E-2,-3.850650787E-2,8.564635654E-2
1.409938363E0,6.034111977E-2,4.316237569E-2,-5.026435852E-2,8.961332014E-2
1.429855152E0,6.662595272E-2,4.572725296E-2,-4.374790192E-2,9.189057711E-2
1.449771779E0,5.266952515E-2,3.719455004E-2,-1.972293854E-2,6.742779647E-2
1.469675059E0,5.008792877E-2,3.276637197E-2,1.241397858E-2,6.112726564E-2
1.489591482E0,5.763387680E-2,3.556132317E-2,2.541542053E-3,6.776969010E-2
1.509522513E0,7.183921337E-2,4.834750295E-2,-1.548290253E-2,8.796632247E-2
1.529439098E0,7.883596420E-2,3.998002410E-2,-4.329204559E-2,9.842617940E-2
1.549359346E0,5.683946609E-2,3.624314070E-2,-4.072856903E-2,7.875980249E-2
1.569274264E0,5.702316761E-2,4.576939344E-2,-4.492282867E-2,8.581689552E-2
1.589190320E0,4.805636406E-2,4.354912043E-2,-3.752803802E-2,7.492859037E-2
1.609109022E0,6.220817566E-2,2.969273925E-2,-3.421974182E-2,7.695782360E-2
1.629022841E0,6.643497944E-2,3.348398209E-2,-2.526760101E-2,7.856993834E-2
1.648940770E0,6.370234489E-2,3.466379642E-2,-2.377128601E-2,7.631933940E-2
1.668857559E0,7.344329357E-2,5.222705007E-2,-2.132511139E-2,9.260854445E-2
1.688774429E0,6.247270107E-2,3.965082765E-2,-3.154087067E-2,8.043539665E-2
1.708684505E0,6.115317345E-2,4.823756218E-2,-4.618549347E-2,9.055204489E-2
1.728608008E0,6.654822826E-2,3.670796752E-2,-3.441429138E-2,8.342952125E-2
1.748524716E0,6.754755974E-2,3.776812553E-2,-1.960563660E-2,7.983411000E-2
1.768440081E0,5.813705921E-2,3.083217144E-2,-3.073024750E-2,7.262842805E-2
1.788358498E0,6.274485588E-2,3.677618504E-2,-2.150917053E-2,7.584226488E-2
1.808274758E0,5.161142349E-2,3.321915865E-2,-3.424072266E-2,7.028284730E-2
1.828190082E0,6.267464161E-2,3.168553114E-2,-3.207111359E-2,7.720518060E-2
1.848107319E0,7.792544365E-2,4.041898251E-2,-2.749156952E-2,9.198834333E-2
1.868009745E0,7.724261284E-2,4.286348820E-2,-2.493572235E-2,9.179046850E-2
1.887941833E0,6.093645096E-2,2.976724505E-2,-2.188873291E-2,7.126329042E-2
1.907843405E0,5.564844608E-2,2.860060334E-2,-2.064418793E-2,6.588570830E-2
1.927775209E0,5.251550674E-2,3.365653753E-2,-1.083946228E-2,6.330983265E-2
1.947692080E0,4.563665390E-2,4.228004813E-2,-3.623867035E-2,7.199686019E-2
1.967593610E0,6.046116352E-2,4.523068666E-2,-3.175735474E-2,8.191396029E-2
1.987510400E0,5.990600586E-2,3.918814659E-2,-3.139400482E-2,7.816664193E-2
2.007442488E0,5.889463425E-2,4.059851170E-2,-3.787612915E-2,8.094083181E-2
2.027357731E0,7.434570789E-2,3.837069869E-2,-3.360652924E-2,9.016093171E-2
2.047275985E0,6.486380100E-2,2.445924282E-2,-3.240680695E-2,7.652299247E-2
2.067192612E0,6.416761875E-2,1.988759637E-2,-1.792907715E-2,6.953022072E-2
2.087108099E0,6.524634361E-2,3.790003061E-2,-6.383895874E-3,7.572484270E-2
2.107024848E0,6.398499012E-2,6.804189086E-2,-1.194477081E-2,9.416185758E-2
2.126942817E0,6.593143940E-2,6.447914243E-2,-3.205966949E-2,9.763368741E-2
2.146859606E0,6.480121613E-2,5.405122042E-2,-2.723026276E-2,8.866915613E-2
2.166776355E0,8.017611504E-2,4.399195313E-2,-3.711986542E-2,9.869845881E-2
2.186693266E0,9.759068489E-2,3.356051445E-2,-2.351093292E-2,1.058442907E-1
2.206594634E0,8.591413498E-2,2.554473281E-2,-3.212451935E-2,9.521426735E-2
2.226511545E0,7.573199272E-2,1.818177104E-2,-3.588676453E-2,8.575413336E-2
2.246443552E0,6.697905064E-2,2.895832062E-2,-2.898311615E-2,7.851623131E-2
2.266365590E0,5.296635628E-2,4.188594222E-2,-2.627468109E-2,7.245844271E-2
2.286277171E0,4.613661766E-2,4.710733891E-2,-1.192855835E-2,6.700730835E-2
2.306193920E0,3.817498684E-2,5.170330405E-2,-2.363491058E-2,6.847751652E-2
2.326110221E0,3.557276726E-2,6.600874662E-2,-3.244590759E-2,8.170259066E-2
2.346025789E0,4.044532776E-2,4.887714982E-2,-3.200054169E-2,7.105515450E-2
2.365944003E0,4.174864292E-2,4.283311963E-2,-3.185367584E-2,6.776637800E-2
2.385860629E0,5.043673515E-2,2.341043949E-2,-2.773094177E-2,6.213628619E-2
2.405776035E0,5.784702301E-2,2.617087960E-2,-2.758693695E-2,6.922594962E-2
2.425694248E0,5.402815342E-2,2.480745316E-2,-3.507995605E-2,6.902937354E-2
2.445611241E0,7.129859924E-2,2.267003059E-2,-3.411483765E-2,8.222677598E-2
2.465527664E0,6.923902035E-2,1.594963670E-2,-2.167701721E-2,7.428543548E-2
2.485444779E0,7.442831993E-2,2.438312769E-2,-1.753425598E-2,8.025934124E-2
2.505348018E0,6.529104710E-2,3.623619676E-2,-2.816295624E-2,7.980685992E-2
2.525278439E0,6.712698936E-2,4.640534520E-2,-3.261852264E-2,8.788319967E-2
2.545194984E0,5.951702595E-2,4.652789235E-2,-2.655506134E-2,8.007679081E-2
2.565111325E0,6.537461281E-2,4.716619849E-2,-1.813316345E-2,8.262748875E-2
2.585027830E0,6.054317951E-2,2.374774218E-2,-3.118610382E-2,7.212492576E-2
2.604943398E0,7.044458389E-2,1.755782962E-2,-3.984928131E-2,8.281716007E-2
2.624861978E0,7.165777683E-2,3.092205524E-2,-4.427051544E-2,8.972674639E-2
2.644778441E0,7.277739048E-2,4.864460230E-2,-3.224182129E-2,9.328655282E-2
2.664693807E0,6.067764759E-2,2.940100431E-2,-1.751327515E-2,6.966283642E-2
2.684612345E0,3.706443310E-2,4.310578108E-2,-2.655029297E-3,5.691159586E-2
2.704513469E0,4.089951515E-2,4.459217191E-2,-1.870441437E-2,6.333314497E-2
2.724444256E0,4.548895359E-2,4.896545410E-2,-3.362464905E-2,7.481629246E-2
2.744365480E0,5.130445957E-2,1.974841952E-2,-4.159832001E-2,6.893887055E-2
2.764279787E0,5.936491489E-2,2.431139350E-2,-3.626060486E-2,7.368899809E-2
2.784196088E0,7.871448994E-2,3.483045101E-2,-3.575038910E-2,9.320526575E-2
2.804112999E0,7.186806202E-2,3.023177385E-2,-4.167556763E-2,8.840719103E-2
2.824005659E0,6.733787060E-2,2.525773644E-2,-3.423881531E-2,7.965323936E-2
2.843946293E0,6.221199036E-2,2.575665712E-2,-3.347015381E-2,7.519300716E-2
2.863863123E0,7.157945633E-2,2.677804232E-2,-1.949691772E-2,7.887212384E-2
2.883779668E0,6.648552418E-2,7.570922375E-3,-1.668357849E-2,6.896365407E-2
2.903696417E0,6.794500351E-2,1.914876699E-2,-1.041984558E-2,7.135665324E-2
2.923597784E0,6.954967976E-2,3.948009014E-2,-3.276920319E-2,8.642717252E-2
2.943511359E0,6.445920467E-2,6.091076136E-2,-4.456996918E-2,9.925518661E-2
2.963442227E0,4.763531685E-2,5.153816938E-2,-3.283214569E-2,7.748068214E-2
2.983362149E0,4.319691658E-2,4.629945755E-2,-2.776718140E-2,6.914209813E-2
3.003281095E0,4.778730869E-2,4.190775752E-2,-2.401447296E-2,6.794543343E-2
3.023189055E0,5.763113499E-2,4.400023818E-2,-2.941226959E-2,7.824608797E-2
3.043113575E0,5.683279037E-2,2.495479584E-2,-3.359317780E-2,7.057768409E-2
3.063030079E0,6.135487556E-2,2.136871219E-2,-2.656459808E-2,7.019060113E-2
3.082947398E0,6.091809273E-2,1.582640409E-2,-2.946949005E-2,6.949776926E-2
3.102864065E0,5.806243420E-2,2.393570542E-2,-1.886558533E-2,6.557495382E-2
3.122769786E0,5.807828903E-2,2.470180392E-2,-1.673316956E-2,6.529368834E-2
3.142697602E0,6.611716747E-2,4.441389441E-2,-2.669715881E-2,8.400483403E-2
3.162614310E0,7.323086262E-2,2.287524939E-2,-3.607845306E-2,8.478025153E-2
3.182531384E0,6.816744804E-2,1.913934946E-2,-4.232120514E-2,8.248757528E-2
3.202442477E0,7.595026493E-2,2.256906033E-2,-4.865741730E-2,9.298037150E-2
3.222369968E0,7.615315914E-2,4.608246684E-2,-4.199314117E-2,9.841911046E-2
3.242280084E0,7.509720325E-2,3.192818165E-2,-2.596950531E-2,8.563535442E-2
3.262210382E0,5.493688583E-2,3.076583147E-2,-1.838302612E-2,6.559369985E-2
3.282114883E0,3.562438488E-2,3.397816420E-2,-3.627777100E-3,4.936368308E-2
3.302030329E0,4.684197903E-2,4.192242026E-2,-2.660655975E-2,6.826103824E-2
3.321946834E0,4.913616180E-2,2.533820271E-2,-3.943347931E-2,6.790718816E-2
3.341863664E0,5.036091805E-2,2.972969413E-2,-4.756736755E-2,7.538389241E-2
3.361780372E0,6.780982018E-2,3.717839718E-2,-4.084873199E-2,8.745869788E-2
3.381697201E0,7.264089584E-2,3.725272417E-2,-4.845046997E-2,9.493109737E-2
3.401613991E0,6.776106358E-2,3.008189797E-2,-3.516674042E-2,8.205596843E-2
3.421530861E0,5.897939205E-2,3.191989660E-2,-1.991558075E-2,6.995769323E-2
3.441447528E0,6.412947178E-2,3.472331166E-2,-2.672100067E-2,7.766794320E-2
3.461364521E0,6.149160862E-2,2.869874239E-2,-1.957035065E-2,7.062460173E-2
3.481281880E0,6.117069721E-2,1.978549361E-2,-2.042293549E-2,6.745677319E-2
3.501197774E0,6.391012669E-2,4.467746615E-2,-3.752136230E-2,8.653573195E-2
3.521115052E0,6.765246391E-2,5.488309264E-2,-4.209327698E-2,9.675150489E-2
3.541033753E0,5.248904228E-2,3.712078929E-2,-3.260612488E-2,7.208475523E-2
3.560948182E0,4.267442226E-2,1.511201262E-2,-1.999664307E-2,4.949085749E-2
3.580864850E0,4.462575912E-2,1.911595464E-2,-1.979923248E-2,5.242983603E-2
3.600768943E0,5.063569546E-2,3.618538380E-2,-3.273010254E-2,7.031795835E-2
3.620684512E0,3.777849674E-2,2.289685607E-2,-4.195785522E-2,6.092571254E-2
3.640615095E0,5.182063580E-2,2.355304360E-2,-3.491497040E-2,6.677708675E-2
3.660531966E0,6.020843983E-2,2.030348778E-2,-3.393173218E-2,7.203228645E-2
3.680448633E0,6.714999676E-2,2.456736565E-2,-2.688217163E-2,7.638932302E-2
3.700367335E0,7.210409641E-2,1.899105310E-2,-1.996612549E-2,7.719007050E-2
3.720282944E0,6.782996655E-2,2.685794234E-2,-2.906131744E-2,7.852906214E-2
3.740199082E0,5.539643764E-2,1.696786284E-2,-2.975845337E-2,6.513247439E-2
3.760116034E0,4.819929600E-2,9.793907404E-3,-3.980827332E-2,6.327551960E-2
3.780034492E0,7.018494606E-2,4.092901945E-2,-4.753684998E-2,9.413215918E-2
3.799949490E0,8.325195312E-2,5.705359578E-2,-3.385353088E-2,1.064521585E-1
3.819865913E0,5.554914474E-2,2.615442872E-2,-1.366806030E-2,6.290133143E-2
3.839782703E0,3.615128994E-2,2.562186122E-2,5.359649658E-4,4.431346065E-2
3.859699533E0,3.432345390E-2,3.443184495E-2,-1.318359375E-2,5.037319306E-2
3.879616281E0,4.575955868E-2,3.384861350E-2,-2.943515778E-2,6.407881366E-2
3.899517445E0,4.599511623E-2,3.571581841E-2,-2.901077271E-2,6.505993648E-2
3.919450063E0,6.295800209E-2,3.606998920E-2,-3.784084320E-2,8.183326685E-2
3.939353547E0,7.304239273E-2,3.228315711E-2,-5.608177185E-2,9.758359751E-2
3.959270539E0,6.230020523E-2,2.122566104E-2,-4.477691650E-2,7.960412370E-2
3.979202058E0,5.972278118E-2,2.353894711E-2,-1.523780823E-2,6.597790102E-2
3.999109652E0,5.303168297E-2,1.183876395E-2,-1.531314850E-2,5.645359375E-2
4.023993767E0,4.792881012E-2,2.368575335E-2,-2.598762512E-2,5.944360698E-2
4.043931675E0,5.421006680E-2,2.804252505E-2,-2.854537964E-2,6.737917521E-2
4.063848545E0,6.474339962E-2,3.163781762E-2,-2.737617493E-2,7.708511044E-2
4.083765538E0,6.753468513E-2,4.508978128E-2,-2.731037140E-2,8.567309063E-2
4.103682327E0,5.141377449E-2,4.821002483E-2,-2.727603912E-2,7.557489671E-2
4.123598791E0,5.753719807E-2,2.929434180E-2,-3.312778473E-2,7.256815930E-2
4.143515702E0,5.869269371E-2,2.575796843E-2,-2.354335785E-2,6.828319655E-2
4.163432491E0,6.939184666E-2,3.138828278E-2,-3.299617767E-2,8.300120734E-2
4.183345456E0,7.399892807E-2,2.859720588E-2,-3.536224365E-2,8.685695030E-2
4.203264686E0,6.272149086E-2,2.241256833E-2,-3.432083130E-2,7.492815289E-2
4.223189939E0,5.163884163E-2,1.281672716E-2,-3.317832947E-2,6.270279106E-2
4.243102781E0,5.387413502E-2,1.491209865E-2,-2.617645264E-2,6.172519569E-2
4.263015664E0,5.848181248E-2,2.290895581E-2,-2.503299713E-2,6.761356071E-2
4.282933145E0,6.674373150E-2,3.455892205E-2,-1.428890228E-2,7.650632337E-2
4.302849812E0,6.204319000E-2,2.622145414E-2,-1.307010651E-2,6.861304371E-2
4.322754680E0,5.400156975E-2,3.752976656E-3,-3.439903259E-2,6.413694577E-2
4.342669394E0,6.027805805E-2,1.542934775E-2,-5.234241486E-2,8.130951634E-2
4.362600139E0,7.885968685E-2,5.496793985E-2,-5.371284485E-2,1.101153682E-1
4.382516888E0,6.980991364E-2,5.379247665E-2,-3.017807007E-2,9.315455168E-2
4.402433637E0,4.413950443E-2,2.742466331E-2,-6.322860718E-4,5.196929665E-2
4.422345543E0,2.005648613E-2,1.549366117E-2,7.720947266E-3,2.649394646E-2
4.442267052E0,3.256118298E-2,2.072590590E-2,-2.779006958E-2,4.756134753E-2
4.462191532E0,4.604458809E-2,2.216726542E-2,-3.584957123E-2,6.242342113E-2
4.482101689E0,5.869090557E-2,2.759072185E-2,-4.774951935E-2,8.053500436E-2
4.502016199E0,6.525254250E-2,2.555498481E-2,-5.139636993E-2,8.690534157E-2
4.521937708E0,6.748688221E-2,2.220004797E-2,-4.924774170E-2,8.644455716E-2
4.541849696E0,6.234920025E-2,1.321437955E-2,-3.153705597E-2,7.110997467E-2
4.561766404E0,6.470012665E-2,6.097942591E-3,-2.593326569E-2,6.997017623E-2
4.581683153E0,6.117212772E-2,2.161371708E-2,-2.026271820E-2,6.796881436E-2
4.601599983E0,5.862450600E-2,1.795691252E-2,-2.883148193E-2,6.775350737E-2
4.621516487E0,6.186211109E-2,1.911491156E-2,-2.792358398E-2,7.051260295E-2
4.641433276E0,6.187570095E-2,3.854835033E-2,-3.055667877E-2,7.904611502E-2
4.661345142E0,5.044138432E-2,4.402497411E-2,-3.437423706E-2,7.526034660E-2
4.681266936E0,5.207264423E-2,4.195791483E-2,-4.163360596E-2,7.877426000E-2
4.701183725E0,4.955625534E-2,3.175309300E-2,-3.226375580E-2,6.711952992E-2
4.721102997E0,5.027210712E-2,2.102464437E-2,-1.698398590E-2,5.707693232E-2
4.741018077E0,5.343890190E-2,1.928171515E-2,-2.808856964E-2,6.337561455E-2
4.760917369E0,5.289697647E-2,1.017805934E-2,-3.433704376E-2,6.388047891E-2
4.780850882E0,4.996585846E-2,1.553708315E-2,-4.187297821E-2,6.701741765E-2
4.800754122E0,5.864965916E-2,1.249897480E-2,-4.106426239E-2,7.267929923E-2
4.820684623E0,5.126273632E-2,1.543596387E-2,-2.724742889E-2,6.007128679E-2
4.840601128E0,6.521165371E-2,1.208394766E-2,-1.329135895E-2,6.764053366E-2
4.860518080E0,5.006349087E-2,1.963368058E-2,-2.215576172E-2,5.816108930E-2
4.880434828E0,4.344773293E-2,2.853909135E-2,-4.409503937E-2,6.816566385E-2
4.900343886E0,4.471826553E-2,2.910187840E-2,-3.013992310E-2,6.127852449E-2
4.920268122E0,4.715907574E-2,2.142921090E-2,-2.695655823E-2,5.839388269E-2
4.940184911E0,5.716502666E-2,3.364825249E-2,-4.524612427E-2,8.029481260E-2
4.960103654E0,6.192445755E-2,4.931089282E-2,-4.099369049E-2,8.914418239E-2
4.980018774E0,5.982732773E-2,2.191111445E-2,-3.548526764E-2,7.292880295E-2
4.999935279E0,4.437398911E-2,1.077499986E-2,-1.395225525E-3,4.568476973E-2
5.019848813E0,3.870284557E-2,2.403333783E-2,-7.825851440E-3,4.622505309E-2
5.039768979E0,5.747389793E-2,5.030256510E-2,-2.240562439E-2,7.959653889E-2
5.059671731E0,5.440855026E-2,3.399986029E-2,-3.185558319E-2,7.163141086E-2
5.079602558E0,4.891526699E-2,3.220883012E-2,-2.830219269E-2,6.504710749E-2
5.099519022E0,6.274926662E-2,2.147546411E-2,-4.981899261E-2,8.294937037E-2
5.119436014E0,6.332170963E-2,2.029097080E-2,-5.701446533E-2,8.759002034E-2
5.139346619E0,5.522036552E-2,2.005499601E-2,-4.188728333E-2,7.215286646E-2
5.159270162E0,5.907869339E-2,1.591780782E-2,-2.430057526E-2,6.583453939E-2
5.179186748E0,5.330359936E-2,1.670938730E-2,-1.877784729E-2,5.893288452E-2
5.199109112E0,5.675327778E-2,1.728877425E-2,-2.393054962E-2,6.397270870E-2
5.219020164E0,5.754721165E-2,1.899325848E-2,-3.279972076E-2,6.890752585E-2
5.238938052E0,6.005501747E-2,3.655320406E-2,-3.081893921E-2,7.676293939E-2
5.258839623E0,5.036199093E-2,4.622709751E-2,-3.833580017E-2,7.837670731E-2
5.278771671E0,4.885923862E-2,4.277494550E-2,-3.372097015E-2,7.317120328E-2
5.298688379E0,5.058991909E-2,3.454804420E-2,-3.761196136E-2,7.188579074E-2
5.318589828E0,4.964220524E-2,2.048739791E-2,-2.596092224E-2,5.964940484E-2
5.338507797E0,4.887330532E-2,2.070367336E-2,-1.789188385E-2,5.601215557E-2
5.358438787E0,5.919241905E-2,1.911750436E-2,-2.673053741E-2,6.770334613E-2
5.378365301E0,5.897438526E-2,2.489361167E-2,-3.898143768E-2,7.494813208E-2
5.398272081E0,4.919290543E-2,2.986517549E-2,-3.810596466E-2,6.902126624E-2
5.418187568E0,4.894888401E-2,2.041259408E-2,-2.396965027E-2,5.819975410E-2
5.438105456E0,4.846906662E-2,1.242050529E-2,-2.056312561E-2,5.409585479E-2
5.458021797E0,4.708302021E-2,1.870512962E-2,-2.679157257E-2,5.731039196E-2
5.477937935E0,4.987156391E-2,1.790475845E-2,-3.525066376E-2,6.364245876E-2
5.497856028E0,5.536675453E-2,3.160041571E-2,-3.662776947E-2,7.352317510E-2
5.517767120E0,4.751026630E-2,2.278301120E-2,-3.433799744E-2,6.289188399E-2
5.537689728E0,4.524636269E-2,2.567869425E-2,-3.453063965E-2,6.244192301E-2
5.557606599E0,4.481065273E-2,3.669977188E-2,-2.769947052E-2,6.420380457E-2
5.577523266E0,4.889154434E-2,1.771926880E-2,-2.910995483E-2,5.959651890E-2
5.597439852E0,5.661320686E-2,3.193801641E-2,-4.724693298E-2,8.035772993E-2
5.617365308E0,6.259977818E-2,4.838687181E-2,-3.934383392E-2,8.836265534E-2
5.637273552E0,5.765688419E-2,2.677774429E-2,-2.296257019E-2,6.759174146E-2
5.657190301E0,4.125380516E-2,6.305307150E-3,3.114700317E-3,4.184895096E-2
5.677106805E0,4.348039627E-2,2.018904686E-2,-1.642131805E-2,5.067348577E-2
5.697023188E0,4.987621307E-2,1.888731122E-2,-2.354717255E-2,5.829954108E-2
5.716940587E0,5.146038532E-2,2.826899290E-2,-3.771877289E-2,6.978547876E-2
5.736856196E0,5.091667175E-2,2.138721943E-2,-3.265476227E-2,6.415804015E-2
5.756774288E0,6.736242771E-2,1.908916235E-2,-4.642295837E-2,8.400704643E-2
5.776698198E0,5.866086483E-2,2.083331347E-3,-5.365753174E-2,7.952715287E-2
5.796592607E0,5.395507812E-2,1.324617863E-2,-4.555225372E-2,7.184441191E-2
5.816524737E0,3.806221485E-2,1.355978847E-2,-2.791786194E-2,4.911218869E-2
5.836441526E0,3.498494625E-2,1.700586081E-2,-7.958412170E-3,3.970493786E-2
5.856358519E0,4.229223728E-2,2.624115348E-2,-2.503681183E-2,5.571421198E-2
5.876274779E0,3.941893578E-2,4.383260012E-2,-4.099655151E-2,7.180436315E-2
5.896191650E0,4.770660400E-2,2.764144540E-2,-3.751182556E-2,6.668663004E-2
5.916107381E0,4.461574554E-2,2.517619729E-2,-2.450656891E-2,5.678888606E-2
5.936024455E0,5.217242241E-2,2.494803071E-2,-2.455139160E-2,6.282624233E-2
5.955941936E0,5.122447014E-2,3.291556239E-2,-3.196716309E-2,6.876976155E-2
5.975858684E0,6.581568718E-2,2.364957333E-2,-3.196716309E-2,7.689542583E-2
5.995774049E0,5.408632755E-2,1.820984483E-2,-3.332328796E-2,6.608608626E-2
6.015678387E0,4.244279861E-2,2.248376608E-2,-2.996253967E-2,5.660975777E-2
6.035609215E0,5.002593994E-2,2.411389351E-2,-3.481197357E-2,6.554348199E-2
6.055524621E0,4.567420483E-2,2.162528038E-2,-2.660655975E-2,5.711124898E-2
6.075442753E0,4.946243763E-2,2.486410737E-2,-2.427864075E-2,6.045005350E-2
6.095365767E0,5.454874039E-2,1.035284996E-2,-2.775096893E-2,6.207143350E-2
6.115274703E0,5.608832836E-2,1.364353299E-2,-3.010654449E-2,6.510338388E-2
6.135193242E0,4.911828041E-2,1.701912284E-2,-3.616046906E-2,6.332326219E-2
6.155094976E0,4.671216011E-2,3.228148818E-2,-3.491592407E-2,6.665764874E-2
6.175025356E0,3.455162048E-2,3.579246998E-2,-4.094791412E-2,6.443327600E-2
6.194943244E0,3.416216373E-2,2.837508917E-2,-2.902984619E-2,5.305592414E-2
6.214860033E0,3.009605408E-2,2.577123046E-2,-2.918052673E-2,4.920804742E-2
6.234763761E0,5.241537094E-2,3.231787682E-2,-2.558612823E-2,6.668182834E-2
6.254693774E0,4.166829586E-2,2.984732389E-2,-3.636741638E-2,6.284662758E-2
6.274610441E0,4.613208771E-2,2.242809534E-2,-1.964092255E-2,5.492681326E-2
6.294527434E0,5.221045017E-2,1.845920086E-2,-3.154373169E-2,6.373131265E-2
6.314442636E0,5.064225197E-2,1.577630639E-2,-4.493141174E-2,6.951518747E-2
6.334365529E0,4.992377758E-2,4.165947437E-2,-5.593490601E-2,8.577067729E-2
6.354277761E0,5.327475071E-2,3.029108047E-2,-2.978801727E-2,6.814011001E-2
6.374193208E0,3.878402710E-2,7.288157940E-3,-3.686904907E-3,3.963472306E-2
6.394110973E0,4.183709621E-2,4.985779524E-3,7.100105286E-3,4.272718236E-2
6.414027722E0,3.653168678E-2,1.804673672E-2,-2.755546570E-2,4.918894729E-2
6.433944633E0,5.140662193E-2,3.327238560E-2,-4.763317108E-2,7.757971004E-2
6.453861666E0,5.060517788E-2,2.490252256E-2,-4.381656647E-2,7.142066336E-2
6.473772596E0,6.077790260E-2,1.860415936E-2,-3.639602661E-2,7.324437824E-2
6.493688165E0,5.662035942E-2,2.181419730E-2,-4.607486725E-2,7.618804169E-2
6.513613418E0,4.977571964E-2,7.118612528E-3,-3.781223297E-2,6.291312957E-2
6.533528742E0,4.438424110E-2,8.861124516E-3,-3.913211823E-2,5.983145546E-2
6.553445531E0,2.407848835E-2,6.832391024E-3,-1.560115814E-2,2.949324166E-2
6.573365494E0,3.321528435E-2,1.509666443E-2,-3.265094757E-2,4.896170716E-2
6.593279517E0,4.473924637E-2,3.049245477E-2,-4.364109039E-2,6.954088534E-2
6.613195777E0,5.343425274E-2,3.553444147E-2,-4.859161377E-2,8.049261348E-2
6.633111264E0,5.441153049E-2,2.829566598E-2,-3.648662567E-2,7.136198720E-2
6.653029803E0,5.539286137E-2,2.366185188E-2,-2.691268921E-2,6.597382182E-2
6.672946267E0,5.267238617E-2,1.872035861E-2,-2.935981750E-2,6.314135709E-2
6.692861550E0,4.287636280E-2,1.130372286E-2,-3.179931641E-2,5.456512770E-2
6.712779764E0,4.895663261E-2,1.058986783E-2,-3.196620941E-2,5.941999429E-2
6.732681213E0,4.509568214E-2,1.977634430E-2,-3.090667725E-2,5.813731195E-2
6.752598083E0,4.892957211E-2,1.333764195E-2,-3.104400635E-2,5.946197146E-2
6.772516582E0,4.814672470E-2,2.106770873E-2,-3.597164154E-2,6.368606163E-2
6.792447083E0,5.015945435E-2,2.345159650E-2,-3.324413300E-2,6.458421337E-2
6.812365663E0,5.292665958E-2,2.336630225E-2,-2.361011505E-2,6.248722196E-2
6.832281557E0,3.736686707E-2,8.911728859E-3,-2.600765228E-2,4.639072798E-2
6.852212791E0,4.444324970E-2,1.321816444E-2,-3.203296661E-2,5.635630635E-2
6.872113345E0,4.445457458E-2,1.975682378E-2,-3.940296173E-2,6.260299258E-2
6.892031152E0,3.360855579E-2,1.224207878E-2,-3.831100464E-2,5.241313377E-2
6.911946150E0,3.340125084E-2,1.662036777E-2,-3.117275238E-2,4.861708211E-2
6.931862980E0,3.752613068E-2,2.431216836E-2,-3.608512878E-2,5.745805891E-2
6.951779892E0,3.911387920E-2,2.832925320E-2,-3.390979767E-2,5.901115582E-2
6.971696599E0,4.813945293E-2,2.636602521E-2,-2.801704407E-2,6.162409409E-2
6.991613429E0,5.385398865E-2,2.213373780E-2,-2.918815613E-2,6.513142790E-2
7.011530015E0,4.897129536E-2,1.563164592E-2,-3.042125702E-2,5.973264603E-2
7.031447008E0,3.915643692E-2,1.985728741E-2,-3.767108917E-2,5.785023228E-2
7.051363675E0,4.237759113E-2,1.926794648E-2,-3.415393829E-2,5.773738384E-2
7.071281522E0,4.335105419E-2,2.018997073E-2,-3.299713135E-2,5.810128652E-2
7.091197294E0,4.685413837E-2,2.331653237E-2,-2.943325043E-2,6.004404380E-2
7.111114775E0,4.329860210E-2,1.426416636E-2,-3.462886810E-2,5.724852742E-2
7.131032907E0,5.164110661E-2,1.857733727E-2,-3.704357147E-2,6.621289556E-2
7.150947703E0,4.822301865E-2,1.816084981E-2,-3.225040436E-2,6.078951040E-2
7.170867259E0,4.696977139E-2,1.894876361E-2,-4.425621033E-2,6.725940246E-2
7.190781078E0,4.172527790E-2,9.427428246E-3,-3.426456451E-2,5.480817093E-2
7.210692374E0,3.915870190E-2,2.010762691E-3,-3.189182281E-2,5.054241252E-2
7.230614981E0,4.385864735E-2,2.414882183E-2,-3.321647644E-2,6.008394836E-2
7.250517814E0,5.183196068E-2,4.465976357E-2,-5.249691010E-2,8.623788147E-2
7.270448479E0,3.155100346E-2,1.760572195E-2,-3.596496582E-2,5.097946676E-2
7.290365227E0,3.016614914E-2,1.114073396E-2,-1.101398468E-2,3.399147490E-2
7.310283034E0,3.566682339E-2,1.454186440E-2,-5.098342896E-3,3.885332947E-2
7.330198683E0,4.521620274E-2,3.564959764E-2,-2.533912659E-2,6.290842661E-2
7.350115798E0,3.751504421E-2,3.095695376E-2,-3.482246399E-2,5.981902312E-2
7.370034500E0,2.467906475E-2,1.672554016E-2,-2.861309052E-2,4.132201447E-2
7.389949092E0,4.452073574E-2,6.675094366E-3,-4.633331299E-2,6.460207960E-2
7.409865962E0,4.884684086E-2,7.506668568E-3,-5.359268188E-2,7.290088810E-2
7.429782670E0,4.698967934E-2,8.320778608E-3,-3.924942017E-2,6.178820522E-2
7.449699582E0,4.737269878E-2,1.120334864E-2,-2.740573883E-2,5.586378193E-2
7.469616412E0,4.157745838E-2,1.164135337E-2,-2.645111084E-2,5.063464642E-2
7.489539386E0,4.399538040E-2,2.493712306E-2,-2.666854858E-2,5.717224053E-2
7.509436277E0,4.754245281E-2,3.371670842E-2,-2.807044983E-2,6.469197323E-2
7.529366616E0,4.670882225E-2,2.969315648E-2,-3.418636322E-2,6.505463126E-2
7.549269368E0,3.670275211E-2,1.637226343E-2,-4.374313354E-2,5.940206019E-2
7.569200968E0,3.314042091E-2,1.996052265E-2,-3.424167633E-2,5.166432387E-2
7.589117228E0,3.670644760E-2,2.568221092E-2,-2.842235565E-2,5.305440184E-2
7.609035523E0,4.013478756E-2,2.782395482E-2,-3.564739227E-2,6.046246943E-2
7.628952190E0,3.727376461E-2,1.793861389E-2,-2.851867676E-2,5.024382868E-2
7.648868817E0,4.433214664E-2,1.651397347E-2,-3.205871582E-2,5.714728170E-2
7.668785931E0,3.946232796E-2,1.780042052E-2,-3.071784973E-2,5.308216829E-2
7.688693158E0,4.219698906E-2,1.891714334E-2,-3.067207336E-2,5.549072249E-2
7.708619388E0,4.492413998E-2,2.259430289E-2,-3.422451019E-2,6.082760865E-2
7.728536014E0,4.484546185E-2,1.070562005E-2,-2.934932709E-2,5.465444858E-2
7.748452966E0,4.715597630E-2,1.177179813E-2,-3.191375732E-2,5.814421070E-2
7.768369715E0,3.867423534E-2,1.182571054E-2,-3.792667389E-2,5.544345319E-2
7.788287521E0,4.112005234E-2,2.959170938E-2,-3.322029114E-2,6.058147994E-2
7.808203171E0,3.512477875E-2,2.955994010E-2,-3.443241119E-2,5.738580906E-2
7.828118536E0,3.365325928E-2,1.867920160E-2,-2.966880798E-2,4.859724889E-2
7.848035285E0,3.822755814E-2,2.188470960E-2,-3.091621399E-2,5.381541603E-2
7.867953539E0,4.129266739E-2,2.025714517E-2,-3.099060059E-2,5.546037897E-2
7.887870531E0,3.857445717E-2,1.892936230E-2,-2.864837646E-2,5.164338270E-2
7.907785450E0,4.372310638E-2,1.866322756E-2,-2.756404877E-2,5.495273314E-2
7.927703908E0,4.280102253E-2,1.019999385E-2,-3.471279144E-2,5.604413702E-2
7.947620859E0,4.609072208E-2,1.837044954E-3,-3.706169128E-2,5.917176993E-2
7.967522390E0,5.430388451E-2,2.443736792E-2,-4.788780212E-2,7.641556396E-2
7.987454438E0,4.199874401E-2,2.668285370E-2,-5.026626587E-2,7.072882485E-2
8.007371309E0,3.623807430E-2,1.544919610E-2,-2.651977539E-2,4.748867419E-2
8.027273287E0,2.756440639E-2,-3.251135349E-4,-1.115226746E-2,2.973676627E-2
8.047205050E0,2.870321274E-2,2.958759665E-2,-1.605033875E-2,4.423701698E-2
8.067120618E0,4.036343098E-2,3.937563300E-2,-3.022861481E-2,6.397981078E-2
8.087037733E0,3.829920292E-2,2.413597703E-2,-2.999401093E-2,5.430483425E-2
8.106953749E0,2.639675140E-2,8.804798126E-3,-4.530715942E-2,5.317002586E-2
8.126871922E0,4.829287529E-2,9.568452835E-3,-4.997920990E-2,7.015467565E-2
8.146788711E0,4.771554470E-2,3.570586443E-3,-4.046344757E-2,6.266428714E-2
8.166704361E0,4.863333702E-2,1.148432493E-2,-4.771900177E-2,6.909554486E-2
8.186607031E0,4.191958904E-2,9.853929281E-3,-3.832435608E-2,5.764640610E-2
8.206518245E0,4.352211952E-2,1.165127754E-2,-2.887630463E-2,5.351418620E-2
8.226453711E0,4.393565655E-2,2.543735504E-2,-3.028297424E-2,5.911395332E-2
8.246372901E0,4.582810402E-2,2.514973283E-2,-3.028583527E-2,6.041486570E-2
8.266290464E0,3.741908073E-2,1.928010583E-2,-3.866767883E-2,5.715854678E-2
8.286206480E0,4.120373726E-2,1.355990767E-2,-3.982925415E-2,5.888963021E-2
8.306121926E0,3.768825531E-2,1.734989882E-2,-3.742027283E-2,5.587217908E-2
8.326040018E0,4.013311863E-2,1.249969006E-2,-3.741359711E-2,5.627332148E-2
8.345956807E0,3.882551193E-2,1.722165942E-2,-2.912807465E-2,5.150194814E-2
8.365873718E0,3.623497486E-2,2.156004310E-2,-3.756046295E-2,5.646766543E-2
8.385790426E0,3.657937050E-2,2.123779058E-2,-3.258514404E-2,5.339368602E-2
8.405691834E0,3.218853474E-2,1.507416368E-2,-3.268909454E-2,4.828984449E-2
8.425609112E0,3.422462940E-2,2.112612128E-2,-3.394222260E-2,5.262806032E-2
8.445541078E0,3.643417358E-2,4.447221756E-3,-3.514099121E-2,5.081452597E-2
8.465446841E0,3.510487080E-2,1.247072220E-2,-2.838611603E-2,4.683633684E-2
8.485356631E0,4.194617271E-2,2.386128902E-2,-3.085231781E-2,5.727746532E-2
8.505294986E0,2.759468555E-2,1.673963666E-2,-3.803920746E-2,4.988650529E-2
8.525208113E0,3.120148182E-2,1.670593023E-2,-4.642486572E-2,5.837712506E-2
8.545123804E0,2.275371552E-2,1.929172873E-2,-3.811454773E-2,4.840063136E-2
8.565041651E0,2.601468563E-2,1.811200380E-2,-3.576374054E-2,4.778968181E-2
8.584958481E0,3.398096561E-2,2.041703463E-2,-2.975940704E-2,4.956998724E-2
8.604875148E0,4.221868515E-2,1.067656279E-2,-2.976989746E-2,5.275085936E-2
8.624792222E0,4.108095169E-2,5.133152008E-3,-2.111911774E-2,4.647591823E-2
8.644708727E0,4.492199421E-2,7.440149784E-3,-4.145336151E-2,6.157696463E-2
8.664625638E0,5.732274055E-2,2.721691132E-2,-4.869937897E-2,7.998928902E-2
8.684527250E0,4.001963139E-2,1.232135296E-2,-4.304027557E-2,6.004874650E-2
8.704459216E0,3.618252277E-2,2.165883780E-3,-2.407455444E-2,4.351379297E-2
8.724376168E0,2.600264549E-2,1.345345378E-2,-3.948211670E-3,2.954185787E-2
8.744294870E0,3.564572334E-2,3.511914611E-2,-2.287673950E-2,5.502106166E-2
8.764209828E0,3.709614277E-2,2.577215433E-2,-3.224086761E-2,5.549595744E-2
8.784125234E0,2.405142784E-2,1.155784726E-2,-4.299545288E-2,5.060300369E-2
8.804042227E0,3.424799442E-2,1.132249832E-2,-4.171848297E-2,5.515030292E-2
8.823945344E0,5.092823505E-2,1.089155674E-2,-4.524707794E-2,6.898992098E-2
8.843877026E0,4.346764088E-2,1.190507412E-2,-4.530334473E-2,6.390273575E-2
8.863793815E0,4.188942909E-2,3.281801939E-3,-3.449821472E-2,5.436562620E-2
8.883710686E0,4.299890995E-2,5.365759134E-3,-3.459548950E-2,5.544858449E-2
8.903627353E0,4.481470585E-2,1.673698425E-2,-3.590011597E-2,5.981055784E-2
8.923544183E0,4.968667030E-2,2.567738295E-2,-3.847312927E-2,6.788427562E-2
8.943461257E0,4.514312744E-2,2.177950740E-2,-4.445075989E-2,6.699342469E-2
8.963362828E0,4.263770580E-2,2.798271179E-2,-4.206657410E-2,6.611053450E-2
8.983299881E0,3.224623203E-2,2.013453841E-2,-3.847503662E-2,5.408833109E-2
9.003210200E0,2.780103683E-2,9.879916906E-3,-3.600788116E-2,4.655188410E-2
9.023113073E0,3.037130833E-2,1.006042957E-2,-3.231143951E-2,4.547150466E-2
9.043045366E0,3.226912022E-2,4.929661751E-3,-2.519798279E-2,4.123755595E-2
9.062960527E0,3.544485569E-2,5.557984114E-3,-3.597068787E-2,5.080471797E-2
9.082878619E0,3.153550625E-2,2.196261287E-2,-3.851604462E-2,5.440891665E-2
9.102795571E0,3.971433640E-2,1.230242848E-2,-3.486633301E-2,5.426084628E-2
9.122712400E0,3.541672230E-2,1.385572553E-2,-3.247165680E-2,5.000733790E-2
9.142629190E0,3.202521801E-2,3.332316875E-3,-2.644252777E-2,4.166444767E-2
9.162545938E0,3.903579712E-2,1.275885105E-2,-3.956890106E-2,5.702876176E-2
9.182447347E0,3.981339931E-2,1.022556424E-2,-5.288028717E-2,6.697756117E-2
9.202371501E0,4.575514793E-2,1.974579692E-2,-4.459095001E-2,6.687139060E-2
9.222288982E0,4.084491730E-2,1.847434044E-2,-3.622245789E-2,5.763397417E-2
9.242216879E0,4.060316086E-2,2.062061429E-2,-3.387069702E-2,5.675429959E-2
9.262129396E0,4.147684574E-2,1.691243052E-2,-3.391742706E-2,5.618497039E-2
9.282046267E0,3.427493572E-2,5.201667547E-3,-2.551364899E-2,4.304387121E-2
9.301962120E0,4.172623158E-2,8.869826794E-3,-3.745269775E-2,5.676668740E-2
9.321878787E0,4.867005348E-2,2.169832587E-2,-4.349803925E-2,6.878714175E-2
9.341795780E0,4.514992237E-2,2.225792408E-2,-4.726219177E-2,6.904813861E-2
9.361712528E0,2.953207493E-2,8.004307747E-4,-2.346515656E-2,3.772794337E-2
9.381629236E0,3.655481339E-2,5.034536123E-3,-5.568504333E-3,3.731767914E-2
9.401546351E0,2.944946289E-2,2.025973797E-2,-1.257324219E-2,3.789213990E-2
9.421463059E0,3.506612778E-2,2.910408378E-2,-3.609466553E-2,5.813351778E-2
9.441379807E0,3.417217731E-2,1.153963804E-2,-5.016231537E-2,6.178315977E-2
9.461300747E0,2.533829212E-2,3.358542919E-3,-5.844020844E-2,6.378531822E-2
9.481213589E0,5.256164074E-2,7.559925318E-3,-3.924179077E-2,6.602875655E-2
9.501130541E0,4.041528702E-2,1.209947467E-2,-4.319477081E-2,6.037864637E-2
9.521047615E0,3.640186787E-2,-7.086992264E-5,-3.725624084E-2,5.208769997E-2
9.540963876E0,3.705620766E-2,-1.460790634E-3,-2.183818817E-2,4.303722688E-2
9.560880746E0,4.138278961E-2,1.615455747E-2,-3.391170502E-2,5.588835961E-2
9.580783660E0,3.577375412E-2,2.114114165E-2,-2.764415741E-2,4.990900513E-2
9.600714325E0,3.680717945E-2,2.594387531E-2,-3.246212006E-2,5.551254240E-2
9.620631114E0,3.213500977E-2,2.647802234E-2,-3.841400146E-2,5.665139035E-2
9.640548025E0,4.442346096E-2,2.340209484E-2,-4.186439514E-2,6.537376773E-2
9.660464733E0,4.121398926E-2,2.145034075E-2,-3.858280182E-2,6.039323327E-2
9.680381685E0,4.721629620E-2,1.210471988E-2,-2.658176422E-2,5.552020406E-2
9.700300997E0,4.341471195E-2,1.437646151E-2,-3.971767426E-2,6.057238238E-2
9.720215426E0,3.693008423E-2,1.202413440E-2,-3.267860413E-2,5.075728614E-2
9.740132134E0,3.181862831E-2,1.387047768E-2,-3.006649017E-2,4.592177142E-2
9.760052178E0,3.341197968E-2,2.168932557E-2,-3.239440918E-2,5.134379199E-2
9.779965672E0,3.631913662E-2,1.039415598E-2,-3.221225739E-2,4.964622533E-2
9.799882461E0,3.422772884E-2,1.367846131E-2,-3.460979462E-2,5.056160212E-2
9.819799332E0,3.930509090E-2,1.566112041E-2,-3.821182251E-2,5.701143958E-2
9.839716121E0,3.535282612E-2,3.815749288E-2,-3.697204590E-2,6.381809113E-2
9.859633032E0,3.302347660E-2,3.806939721E-2,-3.316307068E-2,6.032924886E-2
9.879549862E0,2.630615234E-2,3.249818087E-2,-2.576446533E-2,4.911163899E-2
9.899450579E0,2.341020107E-2,2.488815784E-2,-2.783203125E-2,4.406903537E-2
9.919369647E0,3.041577339E-2,1.147654653E-2,-3.333854675E-2,4.656489118E-2
9.939304421E0,3.505313396E-2,-3.066301346E-3,-3.885173798E-2,5.241738212E-2
9.959218199E0,5.613994598E-2,1.158589125E-2,-4.812240601E-2,7.484445451E-2
9.979133849E0,6.150031090E-2,3.175425529E-2,-5.647373199E-2,8.933030491E-2
9.999053731E0,4.992735386E-2,1.730987430E-2,-2.905559540E-2,6.030422900E-2
